<?xml version='1.0' encoding='UTF-8'?>
<Bundle xmlns="http://hl7.org/fhir">
  <id value="a8392e3f-c0dd-49c3-bc18-342840ae0d81"/>
  <meta>
    <profile value="http://hl7.org/fhir/us/pq-cmc/StructureDefinition/cmc-ectd-document-32p10"/>
  </meta>
  <identifier>
    <extension url="http://hl7.org/fhir/us/pq-cmc/StructureDefinition/pq-ig-version">
      <valueString value="0.1.19"/>
    </extension>
    <system value="urn:ietf:rfc:3986"/>
    <value value="urn:uuid:4fe88f0c-9d78-4b24-8af6-4fe2a01bd2bc"/>
  </identifier>
  <type value="document"/>
  <timestamp value="2024-01-02T23:44:30.210Z"/>
  <entry>
    <fullUrl value="urn:uuid:e21209a2-ae73-457f-b0df-05139336784a"/>
    <resource>
      <Composition>
        <id value="e21209a2-ae73-457f-b0df-05139336784a"/>
        <meta>
          <profile value="http://hl7.org/fhir/us/pq-cmc/StructureDefinition/ectd-composition-32p10"/>
        </meta>
        <status value="final"/>
        <type>
          <coding>
            <system value="http://hl7.org/fhir/us/pq-cmc/CodeSystem/pqcmc-comp-section-types"/>
            <code value="32P10"/>
            <display value="Product Description and Composition of the Drug Product"/>
          </coding>
        </type>
        <date value="2024-01-02T23:44:30.210Z"/>
        <author>
          <reference value="urn:uuid:0e659ae1-22a9-47be-be47-dec835b567ee"/>
        </author>
        <title value="eCTD Product Description and Composition for DemoDrug"/>
        <section>
          <title value="Product Description for DemoDrug"/>
          <entry>
            <reference value="urn:uuid:215f5c11-1ca2-4277-9ffd-9311a8a27003"/>
          </entry>
        </section>
        <section>
          <title value="Product Composition for DemoDrug"/>
          <code>
            <coding>
              <system value="http://hl7.org/fhir/us/pq-cmc/CodeSystem/pqcmc-comp-section-types"/>
              <code value="32P12"/>
              <display value="Product Composition"/>
            </coding>
          </code>
          <entry>
            <reference value="urn:uuid:b9ede2c9-2494-41fc-aadd-d8e009f35c44"/>
          </entry>
        </section>
        <section>
          <title value="Container Closure Description for DemoDrug"/>
          <code>
            <coding>
              <system value="http://hl7.org/fhir/us/pq-cmc/CodeSystem/pqcmc-comp-section-types"/>
              <code value="32P13"/>
              <display value="Product Container Closure Description"/>
            </coding>
          </code>
          <entry>
            <reference value="urn:uuid:4f51b934-b948-4783-9224-d59dc54ecf08"/>
          </entry>
        </section>
      </Composition>
    </resource>
  </entry>
  <entry>
    <fullUrl value="urn:uuid:4f51b934-b948-4783-9224-d59dc54ecf08"/>
    <resource>
      <MedicinalProductDefinition>
        <id value="4f51b934-b948-4783-9224-d59dc54ecf08"/>
        <meta>
          <profile value="http://hl7.org/fhir/us/pq-cmc/StructureDefinition/pqcmc-drugproduct-container-closure"/>
        </meta>
        <extension url="http://hl7.org/fhir/us/pq-cmc/StructureDefinition/pq-container-closure-extension">
          <extension url="containerType">
            <valueCodeableConcept>
              <coding>
                <system value="http://hl7.org/fhir/us/pq-cmc/CodeSystem/cmc-ncit-dummy"/>
                <code value="C43168"/>
                <display value="BLISTER PACK"/>
              </coding>
            </valueCodeableConcept>
          </extension>
          <extension url="closureType">
            <valueCodeableConcept>
              <coding>
                <system value="http://hl7.org/fhir/us/pq-cmc/CodeSystem/cmc-ncit-dummy"/>
                <code value="C96118"/>
                <display value="Tamper-evident, Plastic"/>
              </coding>
            </valueCodeableConcept>
          </extension>
          <extension url="description">
            <valueMarkdown value="a blister pack with tamper-evident plastic"/>
          </extension>
        </extension>
        <name>
          <productName value="CLOPIDOGREL 100mg, ACETAMINOPHEN 250mg, ASPIRIN 250mg"/>
          <type>
            <coding>
              <system value="http://hl7.org/fhir/us/pq-cmc/CodeSystem/cmc-product-name-types"/>
              <code value="NON"/>
              <display value="Non-Proprietary"/>
            </coding>
            <text value="Non-Proprietary"/>
          </type>
          <part>
            <part value="CLOPIDOGREL"/>
            <type>
              <coding>
                <system value="http://terminology.hl7.org/CodeSystem/v3-EntityNamePartQualifierR2"/>
                <code value="SCI"/>
              </coding>
            </type>
          </part>
          <part>
            <part value="100mg"/>
            <type>
              <coding>
                <system value="http://terminology.hl7.org/CodeSystem/v3-EntityNamePartQualifierR2"/>
                <code value="STR"/>
              </coding>
            </type>
          </part>
          <part>
            <part value="ACETAMINOPHEN"/>
            <type>
              <coding>
                <system value="http://terminology.hl7.org/CodeSystem/v3-EntityNamePartQualifierR2"/>
                <code value="SCI"/>
              </coding>
            </type>
          </part>
          <part>
            <part value="250mg"/>
            <type>
              <coding>
                <system value="http://terminology.hl7.org/CodeSystem/v3-EntityNamePartQualifierR2"/>
                <code value="STR"/>
              </coding>
            </type>
          </part>
          <part>
            <part value="ASPIRIN"/>
            <type>
              <coding>
                <system value="http://terminology.hl7.org/CodeSystem/v3-EntityNamePartQualifierR2"/>
                <code value="SCI"/>
              </coding>
            </type>
          </part>
          <part>
            <part value="250mg"/>
            <type>
              <coding>
                <system value="http://terminology.hl7.org/CodeSystem/v3-EntityNamePartQualifierR2"/>
                <code value="STR"/>
              </coding>
            </type>
          </part>
        </name>
      </MedicinalProductDefinition>
    </resource>
  </entry>
  <entry>
    <fullUrl value="urn:uuid:215f5c11-1ca2-4277-9ffd-9311a8a27003"/>
    <resource>
      <MedicinalProductDefinition>
        <id value="215f5c11-1ca2-4277-9ffd-9311a8a27003"/>
        <meta>
          <profile value="http://hl7.org/fhir/us/pq-cmc/StructureDefinition/pqcmc-drug-product-description"/>
        </meta>
        <description value="a 2 layer extended release tablet; pink ER layer has 1 API and white layer has 2 API"/>
        <combinedPharmaceuticalDoseForm>
          <coding>
            <system value="http://hl7.org/fhir/us/pq-cmc/CodeSystem/cmc-ncit-dummy"/>
            <code value="C42998"/>
            <display value="TABLET"/>
          </coding>
        </combinedPharmaceuticalDoseForm>
        <route>
          <coding>
            <system value="http://hl7.org/fhir/us/pq-cmc/CodeSystem/cmc-ncit-dummy"/>
            <code value="C38288"/>
            <display value="ORAL"/>
          </coding>
        </route>
        <name>
          <productName value="CLOPIDOGREL 100mg, ACETAMINOPHEN 250mg, ASPIRIN 250mg"/>
          <type>
            <coding>
              <system value="http://hl7.org/fhir/us/pq-cmc/CodeSystem/cmc-product-name-types"/>
              <code value="NON"/>
              <display value="Non-Proprietary"/>
            </coding>
            <text value="Non-Proprietary"/>
          </type>
          <part>
            <part value="CLOPIDOGREL"/>
            <type>
              <coding>
                <system value="http://terminology.hl7.org/CodeSystem/v3-EntityNamePartQualifierR2"/>
                <code value="SCI"/>
              </coding>
            </type>
          </part>
          <part>
            <part value="100mg"/>
            <type>
              <coding>
                <system value="http://terminology.hl7.org/CodeSystem/v3-EntityNamePartQualifierR2"/>
                <code value="STR"/>
              </coding>
            </type>
          </part>
          <part>
            <part value="ACETAMINOPHEN"/>
            <type>
              <coding>
                <system value="http://terminology.hl7.org/CodeSystem/v3-EntityNamePartQualifierR2"/>
                <code value="SCI"/>
              </coding>
            </type>
          </part>
          <part>
            <part value="250mg"/>
            <type>
              <coding>
                <system value="http://terminology.hl7.org/CodeSystem/v3-EntityNamePartQualifierR2"/>
                <code value="STR"/>
              </coding>
            </type>
          </part>
          <part>
            <part value="ASPIRIN"/>
            <type>
              <coding>
                <system value="http://terminology.hl7.org/CodeSystem/v3-EntityNamePartQualifierR2"/>
                <code value="SCI"/>
              </coding>
            </type>
          </part>
          <part>
            <part value="250mg"/>
            <type>
              <coding>
                <system value="http://terminology.hl7.org/CodeSystem/v3-EntityNamePartQualifierR2"/>
                <code value="STR"/>
              </coding>
            </type>
          </part>
        </name>
      </MedicinalProductDefinition>
    </resource>
  </entry>
  <entry>
    <fullUrl value="urn:uuid:b9ede2c9-2494-41fc-aadd-d8e009f35c44"/>
    <resource>
      <ManufacturedItemDefinition>
        <id value="b9ede2c9-2494-41fc-aadd-d8e009f35c44"/>
        <meta>
          <profile value="http://hl7.org/fhir/us/pq-cmc/StructureDefinition/pqcmc-product-part"/>
        </meta>
        <identifier>
          <value value="DemoDrug"/>
        </identifier>
        <status value="draft"/>
        <manufacturedDoseForm>
          <coding>
            <system value="http://hl7.org/fhir/us/pq-cmc/CodeSystem/cmc-ncit-dummy"/>
            <code value="C42998"/>
            <display value="TABLET"/>
          </coding>
        </manufacturedDoseForm>
        <property>
          <type>
            <coding>
              <system value="http://hl7.org/fhir/us/pq-cmc/CodeSystem/cmc-ncit-dummy"/>
              <code value="OvrRelsProf"/>
              <display value="Product Overall Release Profile"/>
            </coding>
          </type>
          <valueCodeableConcept>
            <coding>
              <system value="http://hl7.org/fhir/us/pq-cmc/CodeSystem/cmc-ncit-dummy"/>
              <code value="102"/>
              <display value="ER"/>
            </coding>
          </valueCodeableConcept>
        </property>
        <property>
          <type>
            <coding>
              <system value="http://hl7.org/fhir/us/pq-cmc/CodeSystem/cmc-ncit-dummy"/>
              <code value="CoatInd"/>
              <display value="Coating Indicator"/>
            </coding>
          </type>
          <valueBoolean value="false"/>
        </property>
        <property>
          <type>
            <coding>
              <system value="http://hl7.org/fhir/us/pq-cmc/CodeSystem/cmc-ncit-dummy"/>
              <code value="Schematic"/>
              <display value="Product Schematic"/>
            </coding>
          </type>
          <valueAttachment>
            <contentType value="image/png"/>
            <data value=""/>
            <title value="demoSchematic.png"/>
          </valueAttachment>
        </property>
        <property>
          <type>
            <coding>
              <system value="http://hl7.org/fhir/us/pq-cmc/CodeSystem/cmc-ncit-dummy"/>
              <code value="WgtTyp"/>
              <display value="Product Weight Type"/>
            </coding>
          </type>
          <valueCodeableConcept>
            <coding>
              <system value="http://hl7.org/fhir/us/pq-cmc/CodeSystem/cmc-ncit-dummy"/>
              <code value="C168628"/>
              <display value="Mass"/>
            </coding>
          </valueCodeableConcept>
        </property>
        <property>
          <type>
            <coding>
              <system value="http://hl7.org/fhir/us/pq-cmc/CodeSystem/cmc-ncit-dummy"/>
              <code value="TotWgtNum"/>
              <display value="Product Total Weight Numeric Numerator"/>
            </coding>
          </type>
          <valueQuantity>
            <value value="870"/>
            <unit value="mg"/>
            <system value="http://hl7.org/fhir/us/pq-cmc/CodeSystem/cmc-ncit-dummy"/>
            <code value="C28253"/>
          </valueQuantity>
        </property>
        <property>
          <type>
            <coding>
              <system value="http://hl7.org/fhir/us/pq-cmc/CodeSystem/cmc-ncit-dummy"/>
              <code value="QualStd"/>
              <display value="Quality Standard"/>
            </coding>
          </type>
          <valueCodeableConcept>
            <coding>
              <system value="http://hl7.org/fhir/us/pq-cmc/CodeSystem/cmc-ncit-dummy"/>
              <code value="C134009"/>
              <display value="Company Standard"/>
            </coding>
          </valueCodeableConcept>
        </property>
        <property>
          <type>
            <coding>
              <system value="http://hl7.org/fhir/us/pq-cmc/CodeSystem/cmc-ncit-dummy"/>
              <code value="OvrRelsMech"/>
              <display value="Product Overall Release Mechanism"/>
            </coding>
          </type>
          <valueCodeableConcept>
            <coding>
              <system value="http://hl7.org/fhir/us/pq-cmc/CodeSystem/cmc-ncit-dummy"/>
              <code value="106"/>
              <display value="Matrix"/>
            </coding>
          </valueCodeableConcept>
        </property>
        <property>
          <type>
            <coding>
              <system value="http://hl7.org/fhir/us/pq-cmc/CodeSystem/cmc-ncit-dummy"/>
              <code value="TabLayCnt"/>
              <display value="Tablet Layer Count"/>
            </coding>
          </type>
          <valueQuantity>
            <value value="2"/>
          </valueQuantity>
        </property>
        <property>
          <type>
            <coding>
              <system value="http://hl7.org/fhir/us/pq-cmc/CodeSystem/cmc-ncit-dummy"/>
              <code value="TotWgtDen"/>
              <display value="Product Total Weight Numeric Denominator"/>
            </coding>
          </type>
          <valueQuantity>
            <value value="1"/>
            <unit value="{tbl}"/>
            <system value="http://hl7.org/fhir/us/pq-cmc/CodeSystem/cmc-ncit-dummy"/>
            <code value="C48542"/>
          </valueQuantity>
        </property>
        <component>
          <type>
            <coding>
              <system value="http://hl7.org/fhir/us/pq-cmc/CodeSystem/cmc-ncit-dummy"/>
              <code value="115"/>
              <display value="Layer"/>
            </coding>
          </type>
          <function>
            <text value="Extended release layer"/>
          </function>
          <amount>
            <value value="200"/>
            <unit value="mg"/>
            <system value="http://hl7.org/fhir/us/pq-cmc/CodeSystem/cmc-ncit-dummy"/>
            <code value="C28253"/>
          </amount>
          <constituent>
            <extension url="http://hl7.org/fhir/us/pq-cmc/StructureDefinition/content-percent">
              <valueDecimal value="0.01"/>
            </extension>
            <amount>
              <value value="2"/>
              <unit value="mg"/>
              <system value="http://hl7.org/fhir/us/pq-cmc/CodeSystem/cmc-ncit-dummy"/>
              <code value="C28253"/>
            </amount>
            <location>
              <coding>
                <system value="http://hl7.org/fhir/us/pq-cmc/CodeSystem/cmc-ncit-dummy"/>
                <code value="149"/>
                <display value="Extragranular"/>
              </coding>
              <text value="Pink Layer"/>
            </location>
            <function>
              <coding>
                <system value="http://hl7.org/fhir/us/pq-cmc/CodeSystem/cmc-ncit-dummy"/>
                <code value="C42637"/>
                <display value="Inactive Ingredient"/>
              </coding>
              <text value="category"/>
            </function>
            <function>
              <coding>
                <system value="http://hl7.org/fhir/us/pq-cmc/CodeSystem/cmc-ncit-dummy"/>
                <code value="C176667"/>
                <display value="Waterrepelling agent"/>
              </coding>
              <text value="function"/>
            </function>
            <hasIngredient>
              <reference>
                <reference value="urn:uuid:cb4b48cc-4f5c-4a39-829a-50c39bc3717a"/>
              </reference>
            </hasIngredient>
          </constituent>
          <constituent>
            <extension url="http://hl7.org/fhir/us/pq-cmc/StructureDefinition/content-percent">
              <valueDecimal value="0.5"/>
            </extension>
            <amount>
              <value value="100"/>
              <unit value="mg"/>
              <system value="http://hl7.org/fhir/us/pq-cmc/CodeSystem/cmc-ncit-dummy"/>
              <code value="C28253"/>
            </amount>
            <location>
              <coding>
                <system value="http://hl7.org/fhir/us/pq-cmc/CodeSystem/cmc-ncit-dummy"/>
                <code value="148"/>
                <display value="Active core/granulate"/>
              </coding>
              <text value="Pink Layer"/>
            </location>
            <function>
              <coding>
                <system value="http://hl7.org/fhir/us/pq-cmc/CodeSystem/cmc-ncit-dummy"/>
                <code value="C82533"/>
                <display value="Active Ingredient"/>
              </coding>
              <text value="category"/>
            </function>
            <hasIngredient>
              <reference>
                <reference value="urn:uuid:a6e661bd-4733-4aad-9e78-ba5f4a897a16"/>
              </reference>
            </hasIngredient>
          </constituent>
          <constituent>
            <extension url="http://hl7.org/fhir/us/pq-cmc/StructureDefinition/content-percent">
              <valueDecimal value="0.065"/>
            </extension>
            <amount>
              <value value="13"/>
              <unit value="mg"/>
              <system value="http://hl7.org/fhir/us/pq-cmc/CodeSystem/cmc-ncit-dummy"/>
              <code value="C28253"/>
            </amount>
            <location>
              <coding>
                <system value="http://hl7.org/fhir/us/pq-cmc/CodeSystem/cmc-ncit-dummy"/>
                <code value="148"/>
                <display value="Active core/granulate"/>
              </coding>
              <text value="Pink Layer"/>
            </location>
            <function>
              <coding>
                <system value="http://hl7.org/fhir/us/pq-cmc/CodeSystem/cmc-ncit-dummy"/>
                <code value="C42637"/>
                <display value="Inactive Ingredient"/>
              </coding>
              <text value="category"/>
            </function>
            <function>
              <coding>
                <system value="http://hl7.org/fhir/us/pq-cmc/CodeSystem/cmc-ncit-dummy"/>
                <code value="C42656"/>
                <display value="Coloring agent"/>
              </coding>
              <text value="function"/>
            </function>
            <hasIngredient>
              <reference>
                <reference value="urn:uuid:61c1a014-d8b8-4969-b71a-6bebbe794917"/>
              </reference>
            </hasIngredient>
          </constituent>
          <constituent>
            <extension url="http://hl7.org/fhir/us/pq-cmc/StructureDefinition/content-percent">
              <valueDecimal value="0.15"/>
            </extension>
            <amount>
              <value value="30"/>
              <unit value="mg"/>
              <system value="http://hl7.org/fhir/us/pq-cmc/CodeSystem/cmc-ncit-dummy"/>
              <code value="C28253"/>
            </amount>
            <location>
              <coding>
                <system value="http://hl7.org/fhir/us/pq-cmc/CodeSystem/cmc-ncit-dummy"/>
                <code value="148"/>
                <display value="Active core/granulate"/>
              </coding>
              <text value="Pink Layer"/>
            </location>
            <function>
              <coding>
                <system value="http://hl7.org/fhir/us/pq-cmc/CodeSystem/cmc-ncit-dummy"/>
                <code value="C42637"/>
                <display value="Inactive Ingredient"/>
              </coding>
              <text value="category"/>
            </function>
            <function>
              <coding>
                <system value="http://hl7.org/fhir/us/pq-cmc/CodeSystem/cmc-ncit-dummy"/>
                <code value="C42648"/>
                <display value="Disintegrant"/>
              </coding>
              <text value="function"/>
            </function>
            <hasIngredient>
              <reference>
                <reference value="urn:uuid:eea90ec8-8c07-465e-8273-f636c0595328"/>
              </reference>
            </hasIngredient>
          </constituent>
          <constituent>
            <extension url="http://hl7.org/fhir/us/pq-cmc/StructureDefinition/content-percent">
              <valueDecimal value="0.05"/>
            </extension>
            <amount>
              <value value="10"/>
              <unit value="mg"/>
              <system value="http://hl7.org/fhir/us/pq-cmc/CodeSystem/cmc-ncit-dummy"/>
              <code value="C28253"/>
            </amount>
            <location>
              <coding>
                <system value="http://hl7.org/fhir/us/pq-cmc/CodeSystem/cmc-ncit-dummy"/>
                <code value="148"/>
                <display value="Active core/granulate"/>
              </coding>
              <text value="Pink Layer"/>
            </location>
            <function>
              <coding>
                <system value="http://hl7.org/fhir/us/pq-cmc/CodeSystem/cmc-ncit-dummy"/>
                <code value="C42637"/>
                <display value="Inactive Ingredient"/>
              </coding>
              <text value="category"/>
            </function>
            <function>
              <coding>
                <system value="http://hl7.org/fhir/us/pq-cmc/CodeSystem/cmc-ncit-dummy"/>
                <code value="C42647"/>
                <display value="Binder"/>
              </coding>
              <text value="function"/>
            </function>
            <hasIngredient>
              <reference>
                <reference value="urn:uuid:2273f749-151b-45d8-879a-2b8b538f15b5"/>
              </reference>
            </hasIngredient>
          </constituent>
          <constituent>
            <extension url="http://hl7.org/fhir/us/pq-cmc/StructureDefinition/content-percent">
              <valueDecimal value="0.05"/>
            </extension>
            <amount>
              <value value="10"/>
              <unit value="mg"/>
              <system value="http://hl7.org/fhir/us/pq-cmc/CodeSystem/cmc-ncit-dummy"/>
              <code value="C28253"/>
            </amount>
            <location>
              <coding>
                <system value="http://hl7.org/fhir/us/pq-cmc/CodeSystem/cmc-ncit-dummy"/>
                <code value="148"/>
                <display value="Active core/granulate"/>
              </coding>
              <text value="Pink Layer"/>
            </location>
            <function>
              <coding>
                <system value="http://hl7.org/fhir/us/pq-cmc/CodeSystem/cmc-ncit-dummy"/>
                <code value="C42637"/>
                <display value="Inactive Ingredient"/>
              </coding>
              <text value="category"/>
            </function>
            <function>
              <coding>
                <system value="http://hl7.org/fhir/us/pq-cmc/CodeSystem/cmc-ncit-dummy"/>
                <code value="C42656"/>
                <display value="Coloring agent"/>
              </coding>
              <text value="function"/>
            </function>
            <hasIngredient>
              <reference>
                <reference value="urn:uuid:5a01e9e0-3fee-4e9c-ad32-3f18f6709bb5"/>
              </reference>
            </hasIngredient>
          </constituent>
          <constituent>
            <extension url="http://hl7.org/fhir/us/pq-cmc/StructureDefinition/content-percent">
              <valueDecimal value="0.075"/>
            </extension>
            <amount>
              <value value="15"/>
              <unit value="mg"/>
              <system value="http://hl7.org/fhir/us/pq-cmc/CodeSystem/cmc-ncit-dummy"/>
              <code value="C28253"/>
            </amount>
            <location>
              <coding>
                <system value="http://hl7.org/fhir/us/pq-cmc/CodeSystem/cmc-ncit-dummy"/>
                <code value="148"/>
                <display value="Active core/granulate"/>
              </coding>
              <text value="Pink Layer"/>
            </location>
            <function>
              <coding>
                <system value="http://hl7.org/fhir/us/pq-cmc/CodeSystem/cmc-ncit-dummy"/>
                <code value="C42637"/>
                <display value="Inactive Ingredient"/>
              </coding>
              <text value="category"/>
            </function>
            <function>
              <coding>
                <system value="http://hl7.org/fhir/us/pq-cmc/CodeSystem/cmc-ncit-dummy"/>
                <code value="C176653"/>
                <display value="Matrixforming agent"/>
              </coding>
              <text value="function"/>
            </function>
            <hasIngredient>
              <reference>
                <reference value="urn:uuid:4895530d-95cb-407f-90bf-af1fd5371038"/>
              </reference>
            </hasIngredient>
          </constituent>
          <constituent>
            <extension url="http://hl7.org/fhir/us/pq-cmc/StructureDefinition/content-percent">
              <valueDecimal value="0.025"/>
            </extension>
            <amount>
              <value value="5"/>
              <unit value="mg"/>
              <system value="http://hl7.org/fhir/us/pq-cmc/CodeSystem/cmc-ncit-dummy"/>
              <code value="C28253"/>
            </amount>
            <location>
              <coding>
                <system value="http://hl7.org/fhir/us/pq-cmc/CodeSystem/cmc-ncit-dummy"/>
                <code value="148"/>
                <display value="Active core/granulate"/>
              </coding>
              <text value="Pink Layer"/>
            </location>
            <function>
              <coding>
                <system value="http://hl7.org/fhir/us/pq-cmc/CodeSystem/cmc-ncit-dummy"/>
                <code value="C42637"/>
                <display value="Inactive Ingredient"/>
              </coding>
              <text value="category"/>
            </function>
            <function>
              <coding>
                <system value="http://hl7.org/fhir/us/pq-cmc/CodeSystem/cmc-ncit-dummy"/>
                <code value="C176651"/>
                <display value="Humectant"/>
              </coding>
              <text value="function"/>
            </function>
            <hasIngredient>
              <reference>
                <reference value="urn:uuid:52f788ca-767a-40fe-9a6a-75baed41ffc9"/>
              </reference>
            </hasIngredient>
          </constituent>
          <constituent>
            <extension url="http://hl7.org/fhir/us/pq-cmc/StructureDefinition/content-percent">
              <valueDecimal value="0.075"/>
            </extension>
            <amount>
              <value value="15"/>
              <unit value="mg"/>
              <system value="http://hl7.org/fhir/us/pq-cmc/CodeSystem/cmc-ncit-dummy"/>
              <code value="C28253"/>
            </amount>
            <location>
              <coding>
                <system value="http://hl7.org/fhir/us/pq-cmc/CodeSystem/cmc-ncit-dummy"/>
                <code value="150"/>
                <display value="Intragranular"/>
              </coding>
              <text value="Pink Layer"/>
            </location>
            <function>
              <coding>
                <system value="http://hl7.org/fhir/us/pq-cmc/CodeSystem/cmc-ncit-dummy"/>
                <code value="C42637"/>
                <display value="Inactive Ingredient"/>
              </coding>
              <text value="category"/>
            </function>
            <function>
              <coding>
                <system value="http://hl7.org/fhir/us/pq-cmc/CodeSystem/cmc-ncit-dummy"/>
                <code value="C176640"/>
                <display value="Solubilizing agent"/>
              </coding>
              <text value="function"/>
            </function>
            <hasIngredient>
              <reference>
                <reference value="urn:uuid:61b14a63-3769-4868-9d2e-4c38d91879f9"/>
              </reference>
            </hasIngredient>
          </constituent>
          <property>
            <type>
              <coding>
                <system value="http://hl7.org/fhir/us/pq-cmc/CodeSystem/cmc-ncit-dummy"/>
                <code value="PPiD"/>
                <display value="Product Part Identifier"/>
              </coding>
            </type>
            <valueCodeableConcept>
              <text value="LayerA"/>
            </valueCodeableConcept>
          </property>
          <property>
            <type>
              <coding>
                <system value="http://hl7.org/fhir/us/pq-cmc/CodeSystem/cmc-ncit-dummy"/>
                <code value="RelsProf"/>
                <display value="Product Part Release Profile"/>
              </coding>
            </type>
            <valueCodeableConcept>
              <coding>
                <system value="http://hl7.org/fhir/us/pq-cmc/CodeSystem/cmc-ncit-dummy"/>
                <code value="102"/>
                <display value="ER"/>
              </coding>
            </valueCodeableConcept>
          </property>
          <property>
            <type>
              <coding>
                <system value="http://hl7.org/fhir/us/pq-cmc/CodeSystem/cmc-ncit-dummy"/>
                <code value="ContPercent"/>
                <display value="Product Part Content Percent"/>
              </coding>
            </type>
            <valueQuantity>
              <value value="0.22989"/>
            </valueQuantity>
          </property>
          <property>
            <type>
              <coding>
                <system value="http://hl7.org/fhir/us/pq-cmc/CodeSystem/cmc-ncit-dummy"/>
                <code value="RelsMech"/>
                <display value="Product Part Release Mechanism"/>
              </coding>
            </type>
            <valueCodeableConcept>
              <coding>
                <system value="http://hl7.org/fhir/us/pq-cmc/CodeSystem/cmc-ncit-dummy"/>
                <code value="106"/>
                <display value="Matrix"/>
              </coding>
            </valueCodeableConcept>
          </property>
          <property>
            <type>
              <coding>
                <system value="http://hl7.org/fhir/us/pq-cmc/CodeSystem/cmc-ncit-dummy"/>
                <code value="Color"/>
                <display value="Product Part Color Description"/>
              </coding>
            </type>
            <valueCodeableConcept>
              <text value="pink"/>
            </valueCodeableConcept>
          </property>
        </component>
        <component>
          <type>
            <coding>
              <system value="http://hl7.org/fhir/us/pq-cmc/CodeSystem/cmc-ncit-dummy"/>
              <code value="115"/>
              <display value="Layer"/>
            </coding>
          </type>
          <function>
            <text value="Immediate release layer"/>
          </function>
          <amount>
            <value value="670"/>
            <unit value="mg"/>
            <system value="http://hl7.org/fhir/us/pq-cmc/CodeSystem/cmc-ncit-dummy"/>
            <code value="C28253"/>
          </amount>
          <constituent>
            <extension url="http://hl7.org/fhir/us/pq-cmc/StructureDefinition/content-percent">
              <valueDecimal value="0.037313"/>
            </extension>
            <amount>
              <value value="25"/>
              <unit value="mg"/>
              <system value="http://hl7.org/fhir/us/pq-cmc/CodeSystem/cmc-ncit-dummy"/>
              <code value="C28253"/>
            </amount>
            <location>
              <coding>
                <system value="http://hl7.org/fhir/us/pq-cmc/CodeSystem/cmc-ncit-dummy"/>
                <code value="149"/>
                <display value="Extragranular"/>
              </coding>
              <text value="White Layer"/>
            </location>
            <function>
              <coding>
                <system value="http://hl7.org/fhir/us/pq-cmc/CodeSystem/cmc-ncit-dummy"/>
                <code value="C42637"/>
                <display value="Inactive Ingredient"/>
              </coding>
              <text value="category"/>
            </function>
            <function>
              <coding>
                <system value="http://hl7.org/fhir/us/pq-cmc/CodeSystem/cmc-ncit-dummy"/>
                <code value="C42647"/>
                <display value="Binder"/>
              </coding>
              <text value="function"/>
            </function>
            <hasIngredient>
              <reference>
                <reference value="urn:uuid:4895530d-95cb-407f-90bf-af1fd5371038"/>
              </reference>
            </hasIngredient>
          </constituent>
          <constituent>
            <extension url="http://hl7.org/fhir/us/pq-cmc/StructureDefinition/content-percent">
              <valueDecimal value="0.047761"/>
            </extension>
            <amount>
              <value value="32"/>
              <unit value="mg"/>
              <system value="http://hl7.org/fhir/us/pq-cmc/CodeSystem/cmc-ncit-dummy"/>
              <code value="C28253"/>
            </amount>
            <location>
              <coding>
                <system value="http://hl7.org/fhir/us/pq-cmc/CodeSystem/cmc-ncit-dummy"/>
                <code value="150"/>
                <display value="Intragranular"/>
              </coding>
              <text value="White Layer"/>
            </location>
            <function>
              <coding>
                <system value="http://hl7.org/fhir/us/pq-cmc/CodeSystem/cmc-ncit-dummy"/>
                <code value="C42637"/>
                <display value="Inactive Ingredient"/>
              </coding>
              <text value="category"/>
            </function>
            <function>
              <coding>
                <system value="http://hl7.org/fhir/us/pq-cmc/CodeSystem/cmc-ncit-dummy"/>
                <code value="C42648"/>
                <display value="Disintegrant"/>
              </coding>
              <text value="function"/>
            </function>
            <hasIngredient>
              <reference>
                <reference value="urn:uuid:eea90ec8-8c07-465e-8273-f636c0595328"/>
              </reference>
            </hasIngredient>
          </constituent>
          <constituent>
            <extension url="http://hl7.org/fhir/us/pq-cmc/StructureDefinition/content-percent">
              <valueDecimal value="0.023881"/>
            </extension>
            <amount>
              <value value="16"/>
              <unit value="mg"/>
              <system value="http://hl7.org/fhir/us/pq-cmc/CodeSystem/cmc-ncit-dummy"/>
              <code value="C28253"/>
            </amount>
            <location>
              <coding>
                <system value="http://hl7.org/fhir/us/pq-cmc/CodeSystem/cmc-ncit-dummy"/>
                <code value="149"/>
                <display value="Extragranular"/>
              </coding>
              <text value="White Layer"/>
            </location>
            <function>
              <coding>
                <system value="http://hl7.org/fhir/us/pq-cmc/CodeSystem/cmc-ncit-dummy"/>
                <code value="C42637"/>
                <display value="Inactive Ingredient"/>
              </coding>
              <text value="category"/>
            </function>
            <function>
              <coding>
                <system value="http://hl7.org/fhir/us/pq-cmc/CodeSystem/cmc-ncit-dummy"/>
                <code value="C42647"/>
                <display value="Binder"/>
              </coding>
              <text value="function"/>
            </function>
            <hasIngredient>
              <reference>
                <reference value="urn:uuid:2273f749-151b-45d8-879a-2b8b538f15b5"/>
              </reference>
            </hasIngredient>
          </constituent>
          <constituent>
            <extension url="http://hl7.org/fhir/us/pq-cmc/StructureDefinition/content-percent">
              <valueDecimal value="0.032836"/>
            </extension>
            <amount>
              <value value="22"/>
              <unit value="mg"/>
              <system value="http://hl7.org/fhir/us/pq-cmc/CodeSystem/cmc-ncit-dummy"/>
              <code value="C28253"/>
            </amount>
            <location>
              <coding>
                <system value="http://hl7.org/fhir/us/pq-cmc/CodeSystem/cmc-ncit-dummy"/>
                <code value="150"/>
                <display value="Intragranular"/>
              </coding>
              <text value="White Layer"/>
            </location>
            <function>
              <coding>
                <system value="http://hl7.org/fhir/us/pq-cmc/CodeSystem/cmc-ncit-dummy"/>
                <code value="C42637"/>
                <display value="Inactive Ingredient"/>
              </coding>
              <text value="category"/>
            </function>
            <function>
              <coding>
                <system value="http://hl7.org/fhir/us/pq-cmc/CodeSystem/cmc-ncit-dummy"/>
                <code value="C42656"/>
                <display value="Coloring agent"/>
              </coding>
              <text value="function"/>
            </function>
            <hasIngredient>
              <reference>
                <reference value="urn:uuid:5a01e9e0-3fee-4e9c-ad32-3f18f6709bb5"/>
              </reference>
            </hasIngredient>
          </constituent>
          <constituent>
            <extension url="http://hl7.org/fhir/us/pq-cmc/StructureDefinition/content-percent">
              <valueDecimal value="0.01791"/>
            </extension>
            <amount>
              <value value="12"/>
              <unit value="mg"/>
              <system value="http://hl7.org/fhir/us/pq-cmc/CodeSystem/cmc-ncit-dummy"/>
              <code value="C28253"/>
            </amount>
            <location>
              <coding>
                <system value="http://hl7.org/fhir/us/pq-cmc/CodeSystem/cmc-ncit-dummy"/>
                <code value="149"/>
                <display value="Extragranular"/>
              </coding>
              <text value="White Layer"/>
            </location>
            <function>
              <coding>
                <system value="http://hl7.org/fhir/us/pq-cmc/CodeSystem/cmc-ncit-dummy"/>
                <code value="C42637"/>
                <display value="Inactive Ingredient"/>
              </coding>
              <text value="category"/>
            </function>
            <function>
              <coding>
                <system value="http://hl7.org/fhir/us/pq-cmc/CodeSystem/cmc-ncit-dummy"/>
                <code value="C176667"/>
                <display value="Waterrepelling agent"/>
              </coding>
              <text value="function"/>
            </function>
            <hasIngredient>
              <reference>
                <reference value="urn:uuid:cb4b48cc-4f5c-4a39-829a-50c39bc3717a"/>
              </reference>
            </hasIngredient>
          </constituent>
          <constituent>
            <extension url="http://hl7.org/fhir/us/pq-cmc/StructureDefinition/content-percent">
              <valueDecimal value="0.373134"/>
            </extension>
            <amount>
              <value value="250"/>
              <unit value="mg"/>
              <system value="http://hl7.org/fhir/us/pq-cmc/CodeSystem/cmc-ncit-dummy"/>
              <code value="C28253"/>
            </amount>
            <location>
              <coding>
                <system value="http://hl7.org/fhir/us/pq-cmc/CodeSystem/cmc-ncit-dummy"/>
                <code value="148"/>
                <display value="Active core/granulate"/>
              </coding>
              <text value="White Layer"/>
            </location>
            <function>
              <coding>
                <system value="http://hl7.org/fhir/us/pq-cmc/CodeSystem/cmc-ncit-dummy"/>
                <code value="C82533"/>
                <display value="Active Ingredient"/>
              </coding>
              <text value="category"/>
            </function>
            <hasIngredient>
              <reference>
                <reference value="urn:uuid:e31cadcb-1211-4f2d-ad5e-02abb021a3dc"/>
              </reference>
            </hasIngredient>
          </constituent>
          <constituent>
            <extension url="http://hl7.org/fhir/us/pq-cmc/StructureDefinition/content-percent">
              <valueDecimal value="0.373134"/>
            </extension>
            <amount>
              <value value="250"/>
              <unit value="mg"/>
              <system value="http://hl7.org/fhir/us/pq-cmc/CodeSystem/cmc-ncit-dummy"/>
              <code value="C28253"/>
            </amount>
            <location>
              <coding>
                <system value="http://hl7.org/fhir/us/pq-cmc/CodeSystem/cmc-ncit-dummy"/>
                <code value="148"/>
                <display value="Active core/granulate"/>
              </coding>
              <text value="White Layer"/>
            </location>
            <function>
              <coding>
                <system value="http://hl7.org/fhir/us/pq-cmc/CodeSystem/cmc-ncit-dummy"/>
                <code value="C82533"/>
                <display value="Active Ingredient"/>
              </coding>
              <text value="category"/>
            </function>
            <hasIngredient>
              <reference>
                <reference value="urn:uuid:e5eea0ab-b062-4bca-b11a-b340bcba96cf"/>
              </reference>
            </hasIngredient>
          </constituent>
          <constituent>
            <extension url="http://hl7.org/fhir/us/pq-cmc/StructureDefinition/content-percent">
              <valueDecimal value="0.041791"/>
            </extension>
            <amount>
              <value value="28"/>
              <unit value="mg"/>
              <system value="http://hl7.org/fhir/us/pq-cmc/CodeSystem/cmc-ncit-dummy"/>
              <code value="C28253"/>
            </amount>
            <location>
              <coding>
                <system value="http://hl7.org/fhir/us/pq-cmc/CodeSystem/cmc-ncit-dummy"/>
                <code value="149"/>
                <display value="Extragranular"/>
              </coding>
              <text value="White Layer"/>
            </location>
            <function>
              <coding>
                <system value="http://hl7.org/fhir/us/pq-cmc/CodeSystem/cmc-ncit-dummy"/>
                <code value="C42637"/>
                <display value="Inactive Ingredient"/>
              </coding>
              <text value="category"/>
            </function>
            <function>
              <coding>
                <system value="http://hl7.org/fhir/us/pq-cmc/CodeSystem/cmc-ncit-dummy"/>
                <code value="C42647"/>
                <display value="Binder"/>
              </coding>
              <text value="function"/>
            </function>
            <hasIngredient>
              <reference>
                <reference value="urn:uuid:4b10459d-f4b5-4414-b6c5-8dce79d5779e"/>
              </reference>
            </hasIngredient>
          </constituent>
          <constituent>
            <extension url="http://hl7.org/fhir/us/pq-cmc/StructureDefinition/content-percent">
              <valueDecimal value="0.008955"/>
            </extension>
            <amount>
              <value value="6"/>
              <unit value="mg"/>
              <system value="http://hl7.org/fhir/us/pq-cmc/CodeSystem/cmc-ncit-dummy"/>
              <code value="C28253"/>
            </amount>
            <location>
              <coding>
                <system value="http://hl7.org/fhir/us/pq-cmc/CodeSystem/cmc-ncit-dummy"/>
                <code value="149"/>
                <display value="Extragranular"/>
              </coding>
              <text value="White Layer"/>
            </location>
            <function>
              <coding>
                <system value="http://hl7.org/fhir/us/pq-cmc/CodeSystem/cmc-ncit-dummy"/>
                <code value="C42637"/>
                <display value="Inactive Ingredient"/>
              </coding>
              <text value="category"/>
            </function>
            <function>
              <coding>
                <system value="http://hl7.org/fhir/us/pq-cmc/CodeSystem/cmc-ncit-dummy"/>
                <code value="C42739"/>
                <display value="Surfactant"/>
              </coding>
              <text value="function"/>
            </function>
            <hasIngredient>
              <reference>
                <reference value="urn:uuid:6b4678fa-4ff2-4e9f-8185-09a75489309c"/>
              </reference>
            </hasIngredient>
          </constituent>
          <constituent>
            <extension url="http://hl7.org/fhir/us/pq-cmc/StructureDefinition/content-percent">
              <valueDecimal value="0.022388"/>
            </extension>
            <amount>
              <value value="15"/>
              <unit value="mg"/>
              <system value="http://hl7.org/fhir/us/pq-cmc/CodeSystem/cmc-ncit-dummy"/>
              <code value="C28253"/>
            </amount>
            <location>
              <coding>
                <system value="http://hl7.org/fhir/us/pq-cmc/CodeSystem/cmc-ncit-dummy"/>
                <code value="150"/>
                <display value="Intragranular"/>
              </coding>
              <text value="White Layer"/>
            </location>
            <function>
              <coding>
                <system value="http://hl7.org/fhir/us/pq-cmc/CodeSystem/cmc-ncit-dummy"/>
                <code value="C42637"/>
                <display value="Inactive Ingredient"/>
              </coding>
              <text value="category"/>
            </function>
            <function>
              <coding>
                <system value="http://hl7.org/fhir/us/pq-cmc/CodeSystem/cmc-ncit-dummy"/>
                <code value="C42656"/>
                <display value="Coloring agent"/>
              </coding>
              <text value="function"/>
            </function>
            <hasIngredient>
              <reference>
                <reference value="urn:uuid:054d2a4a-ff88-4a9a-b6c7-225a31106f71"/>
              </reference>
            </hasIngredient>
          </constituent>
          <constituent>
            <extension url="http://hl7.org/fhir/us/pq-cmc/StructureDefinition/content-percent">
              <valueDecimal value="0.008955"/>
            </extension>
            <amount>
              <value value="6"/>
              <unit value="mg"/>
              <system value="http://hl7.org/fhir/us/pq-cmc/CodeSystem/cmc-ncit-dummy"/>
              <code value="C28253"/>
            </amount>
            <location>
              <coding>
                <system value="http://hl7.org/fhir/us/pq-cmc/CodeSystem/cmc-ncit-dummy"/>
                <code value="149"/>
                <display value="Extragranular"/>
              </coding>
              <text value="White Layer"/>
            </location>
            <function>
              <coding>
                <system value="http://hl7.org/fhir/us/pq-cmc/CodeSystem/cmc-ncit-dummy"/>
                <code value="C42637"/>
                <display value="Inactive Ingredient"/>
              </coding>
              <text value="category"/>
            </function>
            <function>
              <coding>
                <system value="http://hl7.org/fhir/us/pq-cmc/CodeSystem/cmc-ncit-dummy"/>
                <code value="C42653"/>
                <display value="Lubricant"/>
              </coding>
              <text value="function"/>
            </function>
            <hasIngredient>
              <reference>
                <reference value="urn:uuid:ffac222b-62bd-4e62-a5d7-1bc2d4debb32"/>
              </reference>
            </hasIngredient>
          </constituent>
          <constituent>
            <extension url="http://hl7.org/fhir/us/pq-cmc/StructureDefinition/content-percent">
              <valueDecimal value="0.01194"/>
            </extension>
            <amount>
              <value value="8"/>
              <unit value="mg"/>
              <system value="http://hl7.org/fhir/us/pq-cmc/CodeSystem/cmc-ncit-dummy"/>
              <code value="C28253"/>
            </amount>
            <location>
              <coding>
                <system value="http://hl7.org/fhir/us/pq-cmc/CodeSystem/cmc-ncit-dummy"/>
                <code value="150"/>
                <display value="Intragranular"/>
              </coding>
              <text value="White Layer"/>
            </location>
            <function>
              <coding>
                <system value="http://hl7.org/fhir/us/pq-cmc/CodeSystem/cmc-ncit-dummy"/>
                <code value="C42637"/>
                <display value="Inactive Ingredient"/>
              </coding>
              <text value="category"/>
            </function>
            <function>
              <coding>
                <system value="http://hl7.org/fhir/us/pq-cmc/CodeSystem/cmc-ncit-dummy"/>
                <code value="C176640"/>
                <display value="Solubilizing agent"/>
              </coding>
              <text value="function"/>
            </function>
            <hasIngredient>
              <reference>
                <reference value="urn:uuid:d908f96e-139a-400a-9152-0317ccacdc6e"/>
              </reference>
            </hasIngredient>
          </constituent>
          <property>
            <type>
              <coding>
                <system value="http://hl7.org/fhir/us/pq-cmc/CodeSystem/cmc-ncit-dummy"/>
                <code value="PPiD"/>
                <display value="Product Part Identifier"/>
              </coding>
            </type>
            <valueCodeableConcept>
              <text value="LayerB"/>
            </valueCodeableConcept>
          </property>
          <property>
            <type>
              <coding>
                <system value="http://hl7.org/fhir/us/pq-cmc/CodeSystem/cmc-ncit-dummy"/>
                <code value="RelsProf"/>
                <display value="Product Part Release Profile"/>
              </coding>
            </type>
            <valueCodeableConcept>
              <coding>
                <system value="http://hl7.org/fhir/us/pq-cmc/CodeSystem/cmc-ncit-dummy"/>
                <code value="103"/>
                <display value="IR"/>
              </coding>
            </valueCodeableConcept>
          </property>
          <property>
            <type>
              <coding>
                <system value="http://hl7.org/fhir/us/pq-cmc/CodeSystem/cmc-ncit-dummy"/>
                <code value="ContPercent"/>
                <display value="Product Part Content Percent"/>
              </coding>
            </type>
            <valueQuantity>
              <value value="0.77011"/>
            </valueQuantity>
          </property>
          <property>
            <type>
              <coding>
                <system value="http://hl7.org/fhir/us/pq-cmc/CodeSystem/cmc-ncit-dummy"/>
                <code value="Color"/>
                <display value="Product Part Color Description"/>
              </coding>
            </type>
            <valueCodeableConcept>
              <text value="white"/>
            </valueCodeableConcept>
          </property>
        </component>
      </ManufacturedItemDefinition>
    </resource>
  </entry>
  <entry>
    <fullUrl value="urn:uuid:a6e661bd-4733-4aad-9e78-ba5f4a897a16"/>
    <resource>
      <Ingredient>
        <id value="a6e661bd-4733-4aad-9e78-ba5f4a897a16"/>
        <meta>
          <profile value="http://hl7.org/fhir/us/pq-cmc/StructureDefinition/pqcmc-component"/>
        </meta>
        <status value="draft"/>
        <role>
          <coding>
            <system value="http://hl7.org/fhir/us/pq-cmc/CodeSystem/cmc-ncit-dummy"/>
            <code value="C82533"/>
            <display value="Active Ingredient"/>
          </coding>
        </role>
        <substance>
          <code>
            <reference>
              <reference value="urn:uuid:305ef7bb-6a0b-4b15-aea3-396717fd198c"/>
            </reference>
          </code>
          <strength>
            <extension url="http://hl7.org/fhir/us/pq-cmc/StructureDefinition/strength-extension">
              <extension url="strengthType">
                <valueCodeableConcept>
                  <coding>
                    <system value="http://hl7.org/fhir/us/pq-cmc/CodeSystem/cmc-ncit-dummy"/>
                    <code value="C168628"/>
                    <display value="Mass"/>
                  </coding>
                </valueCodeableConcept>
              </extension>
              <extension url="contentPercent">
                <valueDecimal value="0.1149"/>
              </extension>
            </extension>
            <presentationRatio>
              <numerator>
                <value value="100"/>
                <unit value="mg"/>
                <system value="http://hl7.org/fhir/us/pq-cmc/CodeSystem/cmc-ncit-dummy"/>
                <code value="C28253"/>
              </numerator>
              <denominator>
                <value value="1"/>
                <unit value="[arb'U]"/>
                <system value="http://hl7.org/fhir/us/pq-cmc/CodeSystem/cmc-ncit-dummy"/>
                <code value="C75765"/>
              </denominator>
            </presentationRatio>
            <textPresentation value="100mg/1[arb'U]"/>
          </strength>
        </substance>
      </Ingredient>
    </resource>
  </entry>
  <entry>
    <fullUrl value="urn:uuid:e31cadcb-1211-4f2d-ad5e-02abb021a3dc"/>
    <resource>
      <Ingredient>
        <id value="e31cadcb-1211-4f2d-ad5e-02abb021a3dc"/>
        <meta>
          <profile value="http://hl7.org/fhir/us/pq-cmc/StructureDefinition/pqcmc-component"/>
        </meta>
        <status value="draft"/>
        <role>
          <coding>
            <system value="http://hl7.org/fhir/us/pq-cmc/CodeSystem/cmc-ncit-dummy"/>
            <code value="C82533"/>
            <display value="Active Ingredient"/>
          </coding>
        </role>
        <substance>
          <code>
            <reference>
              <reference value="urn:uuid:fa031e3a-32d1-46a6-853c-7481dedcd665"/>
            </reference>
          </code>
          <strength>
            <extension url="http://hl7.org/fhir/us/pq-cmc/StructureDefinition/strength-extension">
              <extension url="strengthType">
                <valueCodeableConcept>
                  <coding>
                    <system value="http://hl7.org/fhir/us/pq-cmc/CodeSystem/cmc-ncit-dummy"/>
                    <code value="C168628"/>
                    <display value="Mass"/>
                  </coding>
                </valueCodeableConcept>
              </extension>
              <extension url="contentPercent">
                <valueDecimal value="0.2874"/>
              </extension>
            </extension>
            <presentationRatio>
              <numerator>
                <value value="250"/>
                <unit value="mg"/>
                <system value="http://hl7.org/fhir/us/pq-cmc/CodeSystem/cmc-ncit-dummy"/>
                <code value="C28253"/>
              </numerator>
              <denominator>
                <value value="1"/>
                <unit value="[arb'U]"/>
                <system value="http://hl7.org/fhir/us/pq-cmc/CodeSystem/cmc-ncit-dummy"/>
                <code value="C75765"/>
              </denominator>
            </presentationRatio>
            <textPresentation value="250mg/1[arb'U]"/>
          </strength>
        </substance>
      </Ingredient>
    </resource>
  </entry>
  <entry>
    <fullUrl value="urn:uuid:e5eea0ab-b062-4bca-b11a-b340bcba96cf"/>
    <resource>
      <Ingredient>
        <id value="e5eea0ab-b062-4bca-b11a-b340bcba96cf"/>
        <meta>
          <profile value="http://hl7.org/fhir/us/pq-cmc/StructureDefinition/pqcmc-component"/>
        </meta>
        <status value="draft"/>
        <role>
          <coding>
            <system value="http://hl7.org/fhir/us/pq-cmc/CodeSystem/cmc-ncit-dummy"/>
            <code value="C82533"/>
            <display value="Active Ingredient"/>
          </coding>
        </role>
        <substance>
          <code>
            <reference>
              <reference value="urn:uuid:130ee607-c9cc-4af7-9bdd-ed06f76fe428"/>
            </reference>
          </code>
          <strength>
            <extension url="http://hl7.org/fhir/us/pq-cmc/StructureDefinition/strength-extension">
              <extension url="strengthType">
                <valueCodeableConcept>
                  <coding>
                    <system value="http://hl7.org/fhir/us/pq-cmc/CodeSystem/cmc-ncit-dummy"/>
                    <code value="C168628"/>
                    <display value="Mass"/>
                  </coding>
                </valueCodeableConcept>
              </extension>
              <extension url="contentPercent">
                <valueDecimal value="0.2874"/>
              </extension>
            </extension>
            <presentationRatio>
              <numerator>
                <value value="250"/>
                <unit value="mg"/>
                <system value="http://hl7.org/fhir/us/pq-cmc/CodeSystem/cmc-ncit-dummy"/>
                <code value="C28253"/>
              </numerator>
              <denominator>
                <value value="1"/>
                <unit value="[arb'U]"/>
                <system value="http://hl7.org/fhir/us/pq-cmc/CodeSystem/cmc-ncit-dummy"/>
                <code value="C75765"/>
              </denominator>
            </presentationRatio>
            <textPresentation value="250mg/1[arb'U]"/>
          </strength>
        </substance>
      </Ingredient>
    </resource>
  </entry>
  <entry>
    <fullUrl value="urn:uuid:cb4b48cc-4f5c-4a39-829a-50c39bc3717a"/>
    <resource>
      <Ingredient>
        <id value="cb4b48cc-4f5c-4a39-829a-50c39bc3717a"/>
        <meta>
          <profile value="http://hl7.org/fhir/us/pq-cmc/StructureDefinition/pqcmc-component"/>
        </meta>
        <status value="draft"/>
        <role>
          <coding>
            <system value="http://hl7.org/fhir/us/pq-cmc/CodeSystem/cmc-ncit-dummy"/>
            <code value="C42637"/>
            <display value="Inactive Ingredient"/>
          </coding>
        </role>
        <substance>
          <code>
            <reference>
              <reference value="urn:uuid:eecac008-7505-4d8b-a26d-6e79dc3b9f07"/>
            </reference>
          </code>
          <strength>
            <extension url="http://hl7.org/fhir/us/pq-cmc/StructureDefinition/strength-extension">
              <extension url="strengthType">
                <valueCodeableConcept>
                  <coding>
                    <system value="http://hl7.org/fhir/us/pq-cmc/CodeSystem/cmc-ncit-dummy"/>
                    <code value="C168628"/>
                    <display value="Mass"/>
                  </coding>
                </valueCodeableConcept>
              </extension>
              <extension url="contentPercent">
                <valueDecimal value="0.0161"/>
              </extension>
            </extension>
            <presentationRatio>
              <numerator>
                <value value="14"/>
                <unit value="mg"/>
                <system value="http://hl7.org/fhir/us/pq-cmc/CodeSystem/cmc-ncit-dummy"/>
                <code value="C28253"/>
              </numerator>
              <denominator>
                <value value="1"/>
                <unit value="[arb'U]"/>
                <system value="http://hl7.org/fhir/us/pq-cmc/CodeSystem/cmc-ncit-dummy"/>
                <code value="C75765"/>
              </denominator>
            </presentationRatio>
            <textPresentation value="14mg/1[arb'U]"/>
          </strength>
        </substance>
      </Ingredient>
    </resource>
  </entry>
  <entry>
    <fullUrl value="urn:uuid:61c1a014-d8b8-4969-b71a-6bebbe794917"/>
    <resource>
      <Ingredient>
        <id value="61c1a014-d8b8-4969-b71a-6bebbe794917"/>
        <meta>
          <profile value="http://hl7.org/fhir/us/pq-cmc/StructureDefinition/pqcmc-component"/>
        </meta>
        <status value="draft"/>
        <role>
          <coding>
            <system value="http://hl7.org/fhir/us/pq-cmc/CodeSystem/cmc-ncit-dummy"/>
            <code value="C42637"/>
            <display value="Inactive Ingredient"/>
          </coding>
        </role>
        <substance>
          <code>
            <reference>
              <reference value="urn:uuid:1df9b075-e885-4e29-99ec-42cf85e802e0"/>
            </reference>
          </code>
          <strength>
            <extension url="http://hl7.org/fhir/us/pq-cmc/StructureDefinition/strength-extension">
              <extension url="strengthType">
                <valueCodeableConcept>
                  <coding>
                    <system value="http://hl7.org/fhir/us/pq-cmc/CodeSystem/cmc-ncit-dummy"/>
                    <code value="C168628"/>
                    <display value="Mass"/>
                  </coding>
                </valueCodeableConcept>
              </extension>
              <extension url="contentPercent">
                <valueDecimal value="0.0149"/>
              </extension>
            </extension>
            <presentationRatio>
              <numerator>
                <value value="13"/>
                <unit value="mg"/>
                <system value="http://hl7.org/fhir/us/pq-cmc/CodeSystem/cmc-ncit-dummy"/>
                <code value="C28253"/>
              </numerator>
              <denominator>
                <value value="1"/>
                <unit value="[arb'U]"/>
                <system value="http://hl7.org/fhir/us/pq-cmc/CodeSystem/cmc-ncit-dummy"/>
                <code value="C75765"/>
              </denominator>
            </presentationRatio>
            <textPresentation value="13mg/1[arb'U]"/>
          </strength>
        </substance>
      </Ingredient>
    </resource>
  </entry>
  <entry>
    <fullUrl value="urn:uuid:eea90ec8-8c07-465e-8273-f636c0595328"/>
    <resource>
      <Ingredient>
        <id value="eea90ec8-8c07-465e-8273-f636c0595328"/>
        <meta>
          <profile value="http://hl7.org/fhir/us/pq-cmc/StructureDefinition/pqcmc-component"/>
        </meta>
        <status value="draft"/>
        <role>
          <coding>
            <system value="http://hl7.org/fhir/us/pq-cmc/CodeSystem/cmc-ncit-dummy"/>
            <code value="C42637"/>
            <display value="Inactive Ingredient"/>
          </coding>
        </role>
        <substance>
          <code>
            <reference>
              <reference value="urn:uuid:867ffe63-eb88-4285-ade8-471e587c33ac"/>
            </reference>
          </code>
          <strength>
            <extension url="http://hl7.org/fhir/us/pq-cmc/StructureDefinition/strength-extension">
              <extension url="strengthType">
                <valueCodeableConcept>
                  <coding>
                    <system value="http://hl7.org/fhir/us/pq-cmc/CodeSystem/cmc-ncit-dummy"/>
                    <code value="C168628"/>
                    <display value="Mass"/>
                  </coding>
                </valueCodeableConcept>
              </extension>
              <extension url="contentPercent">
                <valueDecimal value="0.0713"/>
              </extension>
            </extension>
            <presentationRatio>
              <numerator>
                <value value="62"/>
                <unit value="mg"/>
                <system value="http://hl7.org/fhir/us/pq-cmc/CodeSystem/cmc-ncit-dummy"/>
                <code value="C28253"/>
              </numerator>
              <denominator>
                <value value="1"/>
                <unit value="[arb'U]"/>
                <system value="http://hl7.org/fhir/us/pq-cmc/CodeSystem/cmc-ncit-dummy"/>
                <code value="C75765"/>
              </denominator>
            </presentationRatio>
            <textPresentation value="62mg/1[arb'U]"/>
          </strength>
        </substance>
      </Ingredient>
    </resource>
  </entry>
  <entry>
    <fullUrl value="urn:uuid:2273f749-151b-45d8-879a-2b8b538f15b5"/>
    <resource>
      <Ingredient>
        <id value="2273f749-151b-45d8-879a-2b8b538f15b5"/>
        <meta>
          <profile value="http://hl7.org/fhir/us/pq-cmc/StructureDefinition/pqcmc-component"/>
        </meta>
        <status value="draft"/>
        <role>
          <coding>
            <system value="http://hl7.org/fhir/us/pq-cmc/CodeSystem/cmc-ncit-dummy"/>
            <code value="C42637"/>
            <display value="Inactive Ingredient"/>
          </coding>
        </role>
        <substance>
          <code>
            <reference>
              <reference value="urn:uuid:b81736bf-e92c-4350-a64d-1d85877b6398"/>
            </reference>
          </code>
          <strength>
            <extension url="http://hl7.org/fhir/us/pq-cmc/StructureDefinition/strength-extension">
              <extension url="strengthType">
                <valueCodeableConcept>
                  <coding>
                    <system value="http://hl7.org/fhir/us/pq-cmc/CodeSystem/cmc-ncit-dummy"/>
                    <code value="C168628"/>
                    <display value="Mass"/>
                  </coding>
                </valueCodeableConcept>
              </extension>
              <extension url="contentPercent">
                <valueDecimal value="0.0299"/>
              </extension>
            </extension>
            <presentationRatio>
              <numerator>
                <value value="26"/>
                <unit value="mg"/>
                <system value="http://hl7.org/fhir/us/pq-cmc/CodeSystem/cmc-ncit-dummy"/>
                <code value="C28253"/>
              </numerator>
              <denominator>
                <value value="1"/>
                <unit value="[arb'U]"/>
                <system value="http://hl7.org/fhir/us/pq-cmc/CodeSystem/cmc-ncit-dummy"/>
                <code value="C75765"/>
              </denominator>
            </presentationRatio>
            <textPresentation value="26mg/1[arb'U]"/>
          </strength>
        </substance>
      </Ingredient>
    </resource>
  </entry>
  <entry>
    <fullUrl value="urn:uuid:5a01e9e0-3fee-4e9c-ad32-3f18f6709bb5"/>
    <resource>
      <Ingredient>
        <id value="5a01e9e0-3fee-4e9c-ad32-3f18f6709bb5"/>
        <meta>
          <profile value="http://hl7.org/fhir/us/pq-cmc/StructureDefinition/pqcmc-component"/>
        </meta>
        <status value="draft"/>
        <role>
          <coding>
            <system value="http://hl7.org/fhir/us/pq-cmc/CodeSystem/cmc-ncit-dummy"/>
            <code value="C42637"/>
            <display value="Inactive Ingredient"/>
          </coding>
        </role>
        <substance>
          <code>
            <reference>
              <reference value="urn:uuid:026de5fb-2015-436b-9ac1-472c06c182fc"/>
            </reference>
          </code>
          <strength>
            <extension url="http://hl7.org/fhir/us/pq-cmc/StructureDefinition/strength-extension">
              <extension url="strengthType">
                <valueCodeableConcept>
                  <coding>
                    <system value="http://hl7.org/fhir/us/pq-cmc/CodeSystem/cmc-ncit-dummy"/>
                    <code value="C168628"/>
                    <display value="Mass"/>
                  </coding>
                </valueCodeableConcept>
              </extension>
              <extension url="contentPercent">
                <valueDecimal value="0.0368"/>
              </extension>
            </extension>
            <presentationRatio>
              <numerator>
                <value value="32"/>
                <unit value="mg"/>
                <system value="http://hl7.org/fhir/us/pq-cmc/CodeSystem/cmc-ncit-dummy"/>
                <code value="C28253"/>
              </numerator>
              <denominator>
                <value value="1"/>
                <unit value="[arb'U]"/>
                <system value="http://hl7.org/fhir/us/pq-cmc/CodeSystem/cmc-ncit-dummy"/>
                <code value="C75765"/>
              </denominator>
            </presentationRatio>
            <textPresentation value="32mg/1[arb'U]"/>
          </strength>
        </substance>
      </Ingredient>
    </resource>
  </entry>
  <entry>
    <fullUrl value="urn:uuid:4895530d-95cb-407f-90bf-af1fd5371038"/>
    <resource>
      <Ingredient>
        <id value="4895530d-95cb-407f-90bf-af1fd5371038"/>
        <meta>
          <profile value="http://hl7.org/fhir/us/pq-cmc/StructureDefinition/pqcmc-component"/>
        </meta>
        <status value="draft"/>
        <role>
          <coding>
            <system value="http://hl7.org/fhir/us/pq-cmc/CodeSystem/cmc-ncit-dummy"/>
            <code value="C42637"/>
            <display value="Inactive Ingredient"/>
          </coding>
        </role>
        <substance>
          <code>
            <reference>
              <reference value="urn:uuid:9328a76a-716b-4980-a8a7-d4caec4ce608"/>
            </reference>
          </code>
          <strength>
            <extension url="http://hl7.org/fhir/us/pq-cmc/StructureDefinition/strength-extension">
              <extension url="strengthType">
                <valueCodeableConcept>
                  <coding>
                    <system value="http://hl7.org/fhir/us/pq-cmc/CodeSystem/cmc-ncit-dummy"/>
                    <code value="C168628"/>
                    <display value="Mass"/>
                  </coding>
                </valueCodeableConcept>
              </extension>
              <extension url="contentPercent">
                <valueDecimal value="0.046"/>
              </extension>
            </extension>
            <presentationRatio>
              <numerator>
                <value value="40"/>
                <unit value="mg"/>
                <system value="http://hl7.org/fhir/us/pq-cmc/CodeSystem/cmc-ncit-dummy"/>
                <code value="C28253"/>
              </numerator>
              <denominator>
                <value value="1"/>
                <unit value="[arb'U]"/>
                <system value="http://hl7.org/fhir/us/pq-cmc/CodeSystem/cmc-ncit-dummy"/>
                <code value="C75765"/>
              </denominator>
            </presentationRatio>
            <textPresentation value="40mg/1[arb'U]"/>
          </strength>
        </substance>
      </Ingredient>
    </resource>
  </entry>
  <entry>
    <fullUrl value="urn:uuid:52f788ca-767a-40fe-9a6a-75baed41ffc9"/>
    <resource>
      <Ingredient>
        <id value="52f788ca-767a-40fe-9a6a-75baed41ffc9"/>
        <meta>
          <profile value="http://hl7.org/fhir/us/pq-cmc/StructureDefinition/pqcmc-component"/>
        </meta>
        <status value="draft"/>
        <role>
          <coding>
            <system value="http://hl7.org/fhir/us/pq-cmc/CodeSystem/cmc-ncit-dummy"/>
            <code value="C42637"/>
            <display value="Inactive Ingredient"/>
          </coding>
        </role>
        <substance>
          <code>
            <reference>
              <reference value="urn:uuid:6f6e314b-aefa-4def-b969-a3987f5d9828"/>
            </reference>
          </code>
          <strength>
            <extension url="http://hl7.org/fhir/us/pq-cmc/StructureDefinition/strength-extension">
              <extension url="strengthType">
                <valueCodeableConcept>
                  <coding>
                    <system value="http://hl7.org/fhir/us/pq-cmc/CodeSystem/cmc-ncit-dummy"/>
                    <code value="C168628"/>
                    <display value="Mass"/>
                  </coding>
                </valueCodeableConcept>
              </extension>
              <extension url="contentPercent">
                <valueDecimal value="0.0057"/>
              </extension>
            </extension>
            <presentationRatio>
              <numerator>
                <value value="5"/>
                <unit value="mg"/>
                <system value="http://hl7.org/fhir/us/pq-cmc/CodeSystem/cmc-ncit-dummy"/>
                <code value="C28253"/>
              </numerator>
              <denominator>
                <value value="1"/>
                <unit value="[arb'U]"/>
                <system value="http://hl7.org/fhir/us/pq-cmc/CodeSystem/cmc-ncit-dummy"/>
                <code value="C75765"/>
              </denominator>
            </presentationRatio>
            <textPresentation value="5mg/1[arb'U]"/>
          </strength>
        </substance>
      </Ingredient>
    </resource>
  </entry>
  <entry>
    <fullUrl value="urn:uuid:61b14a63-3769-4868-9d2e-4c38d91879f9"/>
    <resource>
      <Ingredient>
        <id value="61b14a63-3769-4868-9d2e-4c38d91879f9"/>
        <meta>
          <profile value="http://hl7.org/fhir/us/pq-cmc/StructureDefinition/pqcmc-component"/>
        </meta>
        <status value="draft"/>
        <role>
          <coding>
            <system value="http://hl7.org/fhir/us/pq-cmc/CodeSystem/cmc-ncit-dummy"/>
            <code value="C42637"/>
            <display value="Inactive Ingredient"/>
          </coding>
        </role>
        <substance>
          <code>
            <reference>
              <reference value="urn:uuid:766ab30b-a788-4342-86ab-732da566316f"/>
            </reference>
          </code>
          <strength>
            <extension url="http://hl7.org/fhir/us/pq-cmc/StructureDefinition/strength-extension">
              <extension url="strengthType">
                <valueCodeableConcept>
                  <coding>
                    <system value="http://hl7.org/fhir/us/pq-cmc/CodeSystem/cmc-ncit-dummy"/>
                    <code value="C168628"/>
                    <display value="Mass"/>
                  </coding>
                </valueCodeableConcept>
              </extension>
              <extension url="contentPercent">
                <valueDecimal value="0.0172"/>
              </extension>
            </extension>
            <presentationRatio>
              <numerator>
                <value value="15"/>
                <unit value="mg"/>
                <system value="http://hl7.org/fhir/us/pq-cmc/CodeSystem/cmc-ncit-dummy"/>
                <code value="C28253"/>
              </numerator>
              <denominator>
                <value value="1"/>
                <unit value="[arb'U]"/>
                <system value="http://hl7.org/fhir/us/pq-cmc/CodeSystem/cmc-ncit-dummy"/>
                <code value="C75765"/>
              </denominator>
            </presentationRatio>
            <textPresentation value="15mg/1[arb'U]"/>
          </strength>
        </substance>
      </Ingredient>
    </resource>
  </entry>
  <entry>
    <fullUrl value="urn:uuid:4b10459d-f4b5-4414-b6c5-8dce79d5779e"/>
    <resource>
      <Ingredient>
        <id value="4b10459d-f4b5-4414-b6c5-8dce79d5779e"/>
        <meta>
          <profile value="http://hl7.org/fhir/us/pq-cmc/StructureDefinition/pqcmc-component"/>
        </meta>
        <status value="draft"/>
        <role>
          <coding>
            <system value="http://hl7.org/fhir/us/pq-cmc/CodeSystem/cmc-ncit-dummy"/>
            <code value="C42637"/>
            <display value="Inactive Ingredient"/>
          </coding>
        </role>
        <substance>
          <code>
            <reference>
              <reference value="urn:uuid:af5f9fbe-099c-44b0-bfff-1e390c0a3036"/>
            </reference>
          </code>
          <strength>
            <extension url="http://hl7.org/fhir/us/pq-cmc/StructureDefinition/strength-extension">
              <extension url="strengthType">
                <valueCodeableConcept>
                  <coding>
                    <system value="http://hl7.org/fhir/us/pq-cmc/CodeSystem/cmc-ncit-dummy"/>
                    <code value="C168628"/>
                    <display value="Mass"/>
                  </coding>
                </valueCodeableConcept>
              </extension>
              <extension url="contentPercent">
                <valueDecimal value="0.0322"/>
              </extension>
            </extension>
            <presentationRatio>
              <numerator>
                <value value="28"/>
                <unit value="mg"/>
                <system value="http://hl7.org/fhir/us/pq-cmc/CodeSystem/cmc-ncit-dummy"/>
                <code value="C28253"/>
              </numerator>
              <denominator>
                <value value="1"/>
                <unit value="[arb'U]"/>
                <system value="http://hl7.org/fhir/us/pq-cmc/CodeSystem/cmc-ncit-dummy"/>
                <code value="C75765"/>
              </denominator>
            </presentationRatio>
            <textPresentation value="28mg/1[arb'U]"/>
          </strength>
        </substance>
      </Ingredient>
    </resource>
  </entry>
  <entry>
    <fullUrl value="urn:uuid:6b4678fa-4ff2-4e9f-8185-09a75489309c"/>
    <resource>
      <Ingredient>
        <id value="6b4678fa-4ff2-4e9f-8185-09a75489309c"/>
        <meta>
          <profile value="http://hl7.org/fhir/us/pq-cmc/StructureDefinition/pqcmc-component"/>
        </meta>
        <status value="draft"/>
        <role>
          <coding>
            <system value="http://hl7.org/fhir/us/pq-cmc/CodeSystem/cmc-ncit-dummy"/>
            <code value="C42637"/>
            <display value="Inactive Ingredient"/>
          </coding>
        </role>
        <substance>
          <code>
            <reference>
              <reference value="urn:uuid:c31a84e7-1a43-453f-b49d-1664e258982f"/>
            </reference>
          </code>
          <strength>
            <extension url="http://hl7.org/fhir/us/pq-cmc/StructureDefinition/strength-extension">
              <extension url="strengthType">
                <valueCodeableConcept>
                  <coding>
                    <system value="http://hl7.org/fhir/us/pq-cmc/CodeSystem/cmc-ncit-dummy"/>
                    <code value="C168628"/>
                    <display value="Mass"/>
                  </coding>
                </valueCodeableConcept>
              </extension>
              <extension url="contentPercent">
                <valueDecimal value="0.0069"/>
              </extension>
            </extension>
            <presentationRatio>
              <numerator>
                <value value="6"/>
                <unit value="mg"/>
                <system value="http://hl7.org/fhir/us/pq-cmc/CodeSystem/cmc-ncit-dummy"/>
                <code value="C28253"/>
              </numerator>
              <denominator>
                <value value="1"/>
                <unit value="[arb'U]"/>
                <system value="http://hl7.org/fhir/us/pq-cmc/CodeSystem/cmc-ncit-dummy"/>
                <code value="C75765"/>
              </denominator>
            </presentationRatio>
            <textPresentation value="6mg/1[arb'U]"/>
          </strength>
        </substance>
      </Ingredient>
    </resource>
  </entry>
  <entry>
    <fullUrl value="urn:uuid:054d2a4a-ff88-4a9a-b6c7-225a31106f71"/>
    <resource>
      <Ingredient>
        <id value="054d2a4a-ff88-4a9a-b6c7-225a31106f71"/>
        <meta>
          <profile value="http://hl7.org/fhir/us/pq-cmc/StructureDefinition/pqcmc-component"/>
        </meta>
        <status value="draft"/>
        <role>
          <coding>
            <system value="http://hl7.org/fhir/us/pq-cmc/CodeSystem/cmc-ncit-dummy"/>
            <code value="C42637"/>
            <display value="Inactive Ingredient"/>
          </coding>
        </role>
        <substance>
          <code>
            <reference>
              <reference value="urn:uuid:57fbea09-a89b-47b8-a860-ec87e866825b"/>
            </reference>
          </code>
          <strength>
            <extension url="http://hl7.org/fhir/us/pq-cmc/StructureDefinition/strength-extension">
              <extension url="strengthType">
                <valueCodeableConcept>
                  <coding>
                    <system value="http://hl7.org/fhir/us/pq-cmc/CodeSystem/cmc-ncit-dummy"/>
                    <code value="C168628"/>
                    <display value="Mass"/>
                  </coding>
                </valueCodeableConcept>
              </extension>
              <extension url="contentPercent">
                <valueDecimal value="0.0172"/>
              </extension>
            </extension>
            <presentationRatio>
              <numerator>
                <value value="15"/>
                <unit value="mg"/>
                <system value="http://hl7.org/fhir/us/pq-cmc/CodeSystem/cmc-ncit-dummy"/>
                <code value="C28253"/>
              </numerator>
              <denominator>
                <value value="1"/>
                <unit value="[arb'U]"/>
                <system value="http://hl7.org/fhir/us/pq-cmc/CodeSystem/cmc-ncit-dummy"/>
                <code value="C75765"/>
              </denominator>
            </presentationRatio>
            <textPresentation value="15mg/1[arb'U]"/>
          </strength>
        </substance>
      </Ingredient>
    </resource>
  </entry>
  <entry>
    <fullUrl value="urn:uuid:ffac222b-62bd-4e62-a5d7-1bc2d4debb32"/>
    <resource>
      <Ingredient>
        <id value="ffac222b-62bd-4e62-a5d7-1bc2d4debb32"/>
        <meta>
          <profile value="http://hl7.org/fhir/us/pq-cmc/StructureDefinition/pqcmc-component"/>
        </meta>
        <status value="draft"/>
        <role>
          <coding>
            <system value="http://hl7.org/fhir/us/pq-cmc/CodeSystem/cmc-ncit-dummy"/>
            <code value="C42637"/>
            <display value="Inactive Ingredient"/>
          </coding>
        </role>
        <substance>
          <code>
            <reference>
              <reference value="urn:uuid:61b8f148-4299-4fcf-9e5d-4a62120d5fc2"/>
            </reference>
          </code>
          <strength>
            <extension url="http://hl7.org/fhir/us/pq-cmc/StructureDefinition/strength-extension">
              <extension url="strengthType">
                <valueCodeableConcept>
                  <coding>
                    <system value="http://hl7.org/fhir/us/pq-cmc/CodeSystem/cmc-ncit-dummy"/>
                    <code value="C168628"/>
                    <display value="Mass"/>
                  </coding>
                </valueCodeableConcept>
              </extension>
              <extension url="contentPercent">
                <valueDecimal value="0.0069"/>
              </extension>
            </extension>
            <presentationRatio>
              <numerator>
                <value value="6"/>
                <unit value="mg"/>
                <system value="http://hl7.org/fhir/us/pq-cmc/CodeSystem/cmc-ncit-dummy"/>
                <code value="C28253"/>
              </numerator>
              <denominator>
                <value value="1"/>
                <unit value="[arb'U]"/>
                <system value="http://hl7.org/fhir/us/pq-cmc/CodeSystem/cmc-ncit-dummy"/>
                <code value="C75765"/>
              </denominator>
            </presentationRatio>
            <textPresentation value="6mg/1[arb'U]"/>
          </strength>
        </substance>
      </Ingredient>
    </resource>
  </entry>
  <entry>
    <fullUrl value="urn:uuid:d908f96e-139a-400a-9152-0317ccacdc6e"/>
    <resource>
      <Ingredient>
        <id value="d908f96e-139a-400a-9152-0317ccacdc6e"/>
        <meta>
          <profile value="http://hl7.org/fhir/us/pq-cmc/StructureDefinition/pqcmc-component"/>
        </meta>
        <status value="draft"/>
        <role>
          <coding>
            <system value="http://hl7.org/fhir/us/pq-cmc/CodeSystem/cmc-ncit-dummy"/>
            <code value="C42637"/>
            <display value="Inactive Ingredient"/>
          </coding>
        </role>
        <substance>
          <code>
            <reference>
              <reference value="urn:uuid:366c9308-ff57-415f-940b-4696ca6e1e32"/>
            </reference>
          </code>
          <strength>
            <extension url="http://hl7.org/fhir/us/pq-cmc/StructureDefinition/strength-extension">
              <extension url="strengthType">
                <valueCodeableConcept>
                  <coding>
                    <system value="http://hl7.org/fhir/us/pq-cmc/CodeSystem/cmc-ncit-dummy"/>
                    <code value="C168628"/>
                    <display value="Mass"/>
                  </coding>
                </valueCodeableConcept>
              </extension>
              <extension url="contentPercent">
                <valueDecimal value="0.0092"/>
              </extension>
            </extension>
            <presentationRatio>
              <numerator>
                <value value="8"/>
                <unit value="mg"/>
                <system value="http://hl7.org/fhir/us/pq-cmc/CodeSystem/cmc-ncit-dummy"/>
                <code value="C28253"/>
              </numerator>
              <denominator>
                <value value="1"/>
                <unit value="[arb'U]"/>
                <system value="http://hl7.org/fhir/us/pq-cmc/CodeSystem/cmc-ncit-dummy"/>
                <code value="C75765"/>
              </denominator>
            </presentationRatio>
            <textPresentation value="8mg/1[arb'U]"/>
          </strength>
        </substance>
      </Ingredient>
    </resource>
  </entry>
  <entry>
    <fullUrl value="urn:uuid:305ef7bb-6a0b-4b15-aea3-396717fd198c"/>
    <resource>
      <SubstanceDefinition>
        <id value="305ef7bb-6a0b-4b15-aea3-396717fd198c"/>
        <meta>
          <profile value="http://hl7.org/fhir/us/pq-cmc/StructureDefinition/pqcmc-component-substance"/>
        </meta>
        <identifier>
          <value value="Clopidogrel"/>
        </identifier>
        <classification>
          <coding>
            <system value="https://www.ema.europa.eu"/>
            <code value="1"/>
            <display value="Chemical"/>
          </coding>
        </classification>
        <grade>
          <coding>
            <system value="http://hl7.org/fhir/us/pq-cmc/CodeSystem/cmc-ncit-dummy"/>
            <code value="C134006"/>
            <display value="USP-NF"/>
          </coding>
        </grade>
        <manufacturer>
          <reference value="urn:uuid:e44076c9-1c64-488b-8e77-922e3fe3804f"/>
        </manufacturer>
        <code>
          <code>
            <coding>
              <system value="https://gsrs.ncats.nih.gov"/>
              <code value="A74586SNO7"/>
            </coding>
          </code>
        </code>
        <name>
          <name value="CLOPIDOGREL"/>
          <type>
            <coding>
              <system value="http://hl7.org/fhir/us/pq-cmc/CodeSystem/cmc-ncit-dummy"/>
              <code value="141"/>
              <display value="GSRS Preferred"/>
            </coding>
          </type>
          <preferred value="true"/>
        </name>
        <sourceMaterial>
          <type>
            <coding>
              <system value="http://hl7.org/fhir/us/pq-cmc/CodeSystem/cmc-ncit-dummy"/>
              <code value="C48807"/>
              <display value="Chemical"/>
            </coding>
          </type>
        </sourceMaterial>
      </SubstanceDefinition>
    </resource>
  </entry>
  <entry>
    <fullUrl value="urn:uuid:fa031e3a-32d1-46a6-853c-7481dedcd665"/>
    <resource>
      <SubstanceDefinition>
        <id value="fa031e3a-32d1-46a6-853c-7481dedcd665"/>
        <meta>
          <profile value="http://hl7.org/fhir/us/pq-cmc/StructureDefinition/pqcmc-component-substance"/>
        </meta>
        <identifier>
          <value value="acetaminophen"/>
        </identifier>
        <classification>
          <coding>
            <system value="https://www.ema.europa.eu"/>
            <code value="1"/>
            <display value="Chemical"/>
          </coding>
        </classification>
        <grade>
          <coding>
            <system value="http://hl7.org/fhir/us/pq-cmc/CodeSystem/cmc-ncit-dummy"/>
            <code value="C134006"/>
            <display value="USP-NF"/>
          </coding>
        </grade>
        <manufacturer>
          <reference value="urn:uuid:e44076c9-1c64-488b-8e77-922e3fe3804f"/>
        </manufacturer>
        <supplier>
          <reference value="urn:uuid:12d30109-5090-4abd-aa52-4aa1de721d94"/>
        </supplier>
        <code>
          <code>
            <coding>
              <system value="https://gsrs.ncats.nih.gov"/>
              <code value="362O9ITL9D"/>
            </coding>
          </code>
        </code>
        <name>
          <name value="ACETAMINOPHEN"/>
          <type>
            <coding>
              <system value="http://hl7.org/fhir/us/pq-cmc/CodeSystem/cmc-ncit-dummy"/>
              <code value="141"/>
              <display value="GSRS Preferred"/>
            </coding>
          </type>
          <preferred value="true"/>
        </name>
        <sourceMaterial>
          <type>
            <coding>
              <system value="http://hl7.org/fhir/us/pq-cmc/CodeSystem/cmc-ncit-dummy"/>
              <code value="C48807"/>
              <display value="Chemical"/>
            </coding>
          </type>
        </sourceMaterial>
      </SubstanceDefinition>
    </resource>
  </entry>
  <entry>
    <fullUrl value="urn:uuid:130ee607-c9cc-4af7-9bdd-ed06f76fe428"/>
    <resource>
      <SubstanceDefinition>
        <id value="130ee607-c9cc-4af7-9bdd-ed06f76fe428"/>
        <meta>
          <profile value="http://hl7.org/fhir/us/pq-cmc/StructureDefinition/pqcmc-component-substance"/>
        </meta>
        <identifier>
          <value value="aspirin"/>
        </identifier>
        <classification>
          <coding>
            <system value="https://www.ema.europa.eu"/>
            <code value="1"/>
            <display value="Chemical"/>
          </coding>
        </classification>
        <grade>
          <coding>
            <system value="http://hl7.org/fhir/us/pq-cmc/CodeSystem/cmc-ncit-dummy"/>
            <code value="C134006"/>
            <display value="USP-NF"/>
          </coding>
        </grade>
        <manufacturer>
          <reference value="urn:uuid:e44076c9-1c64-488b-8e77-922e3fe3804f"/>
        </manufacturer>
        <supplier>
          <reference value="urn:uuid:12d30109-5090-4abd-aa52-4aa1de721d94"/>
        </supplier>
        <code>
          <code>
            <coding>
              <system value="https://gsrs.ncats.nih.gov"/>
              <code value="R16CO5Y76E"/>
            </coding>
          </code>
        </code>
        <name>
          <name value="ASPIRIN"/>
          <type>
            <coding>
              <system value="http://hl7.org/fhir/us/pq-cmc/CodeSystem/cmc-ncit-dummy"/>
              <code value="141"/>
              <display value="GSRS Preferred"/>
            </coding>
          </type>
          <preferred value="true"/>
        </name>
        <sourceMaterial>
          <type>
            <coding>
              <system value="http://hl7.org/fhir/us/pq-cmc/CodeSystem/cmc-ncit-dummy"/>
              <code value="C48807"/>
              <display value="Chemical"/>
            </coding>
          </type>
        </sourceMaterial>
      </SubstanceDefinition>
    </resource>
  </entry>
  <entry>
    <fullUrl value="urn:uuid:eecac008-7505-4d8b-a26d-6e79dc3b9f07"/>
    <resource>
      <SubstanceDefinition>
        <id value="eecac008-7505-4d8b-a26d-6e79dc3b9f07"/>
        <meta>
          <profile value="http://hl7.org/fhir/us/pq-cmc/StructureDefinition/pqcmc-component-substance"/>
        </meta>
        <identifier>
          <value value="CarnubaWax"/>
        </identifier>
        <classification>
          <coding>
            <system value="https://www.ema.europa.eu"/>
            <code value="17"/>
            <display value="Mixture"/>
          </coding>
        </classification>
        <grade>
          <coding>
            <system value="http://hl7.org/fhir/us/pq-cmc/CodeSystem/cmc-ncit-dummy"/>
            <code value="C134009"/>
            <display value="Company Standard"/>
          </coding>
        </grade>
        <manufacturer>
          <reference value="urn:uuid:e44076c9-1c64-488b-8e77-922e3fe3804f"/>
        </manufacturer>
        <supplier>
          <reference value="urn:uuid:12d30109-5090-4abd-aa52-4aa1de721d94"/>
        </supplier>
        <code>
          <code>
            <coding>
              <system value="https://gsrs.ncats.nih.gov"/>
              <code value="R12CBM0EIZ"/>
            </coding>
          </code>
        </code>
        <name>
          <name value="CARNAUBA WAX"/>
          <type>
            <coding>
              <system value="http://hl7.org/fhir/us/pq-cmc/CodeSystem/cmc-ncit-dummy"/>
              <code value="141"/>
              <display value="GSRS Preferred"/>
            </coding>
          </type>
          <preferred value="true"/>
        </name>
        <sourceMaterial>
          <type>
            <coding>
              <system value="http://hl7.org/fhir/us/pq-cmc/CodeSystem/cmc-ncit-dummy"/>
              <code value="C14258"/>
              <display value="Plant"/>
            </coding>
          </type>
          <genus>
            <text value="Copernicia"/>
          </genus>
          <species>
            <text value="prunifera"/>
          </species>
          <part>
            <text value="leaf"/>
          </part>
          <countryOfOrigin>
            <coding>
              <system value="urn:iso:std:iso:3166"/>
              <code value="CAN"/>
              <display value="Canada"/>
            </coding>
          </countryOfOrigin>
        </sourceMaterial>
      </SubstanceDefinition>
    </resource>
  </entry>
  <entry>
    <fullUrl value="urn:uuid:1df9b075-e885-4e29-99ec-42cf85e802e0"/>
    <resource>
      <SubstanceDefinition>
        <id value="1df9b075-e885-4e29-99ec-42cf85e802e0"/>
        <meta>
          <profile value="http://hl7.org/fhir/us/pq-cmc/StructureDefinition/pqcmc-component-substance"/>
        </meta>
        <identifier>
          <value value="ferricOxideRed"/>
        </identifier>
        <classification>
          <coding>
            <system value="https://www.ema.europa.eu"/>
            <code value="1"/>
            <display value="Chemical"/>
          </coding>
        </classification>
        <grade>
          <coding>
            <system value="http://hl7.org/fhir/us/pq-cmc/CodeSystem/cmc-ncit-dummy"/>
            <code value="C134007"/>
            <display value="EP"/>
          </coding>
        </grade>
        <manufacturer>
          <reference value="urn:uuid:e44076c9-1c64-488b-8e77-922e3fe3804f"/>
        </manufacturer>
        <supplier>
          <reference value="urn:uuid:12d30109-5090-4abd-aa52-4aa1de721d94"/>
        </supplier>
        <code>
          <code>
            <coding>
              <system value="https://gsrs.ncats.nih.gov"/>
              <code value="1K09F3G675"/>
            </coding>
          </code>
        </code>
        <name>
          <name value="FERRIC OXIDE RED"/>
          <type>
            <coding>
              <system value="http://hl7.org/fhir/us/pq-cmc/CodeSystem/cmc-ncit-dummy"/>
              <code value="141"/>
              <display value="GSRS Preferred"/>
            </coding>
          </type>
          <preferred value="true"/>
        </name>
        <sourceMaterial>
          <type>
            <coding>
              <system value="http://hl7.org/fhir/us/pq-cmc/CodeSystem/cmc-ncit-dummy"/>
              <code value="C48807"/>
              <display value="Chemical"/>
            </coding>
          </type>
        </sourceMaterial>
      </SubstanceDefinition>
    </resource>
  </entry>
  <entry>
    <fullUrl value="urn:uuid:867ffe63-eb88-4285-ade8-471e587c33ac"/>
    <resource>
      <SubstanceDefinition>
        <id value="867ffe63-eb88-4285-ade8-471e587c33ac"/>
        <meta>
          <profile value="http://hl7.org/fhir/us/pq-cmc/StructureDefinition/pqcmc-component-substance"/>
        </meta>
        <identifier>
          <value value="Microcrystalline cellulose"/>
        </identifier>
        <classification>
          <coding>
            <system value="https://www.ema.europa.eu"/>
            <code value="3"/>
            <display value="Polymer"/>
          </coding>
        </classification>
        <grade>
          <coding>
            <system value="http://hl7.org/fhir/us/pq-cmc/CodeSystem/cmc-ncit-dummy"/>
            <code value="C134009"/>
            <display value="Company Standard"/>
          </coding>
        </grade>
        <manufacturer>
          <reference value="urn:uuid:e44076c9-1c64-488b-8e77-922e3fe3804f"/>
        </manufacturer>
        <supplier>
          <reference value="urn:uuid:12d30109-5090-4abd-aa52-4aa1de721d94"/>
        </supplier>
        <code>
          <code>
            <coding>
              <system value="https://gsrs.ncats.nih.gov"/>
              <code value="OP1R32D61U"/>
            </coding>
          </code>
        </code>
        <name>
          <name value="MICROCRYSTALLINE CELLULOSE"/>
          <type>
            <coding>
              <system value="http://hl7.org/fhir/us/pq-cmc/CodeSystem/cmc-ncit-dummy"/>
              <code value="141"/>
              <display value="GSRS Preferred"/>
            </coding>
          </type>
          <preferred value="true"/>
        </name>
        <name>
          <name value="Cellulose Gel"/>
          <type>
            <coding>
              <system value="http://hl7.org/fhir/us/pq-cmc/CodeSystem/cmc-ncit-dummy"/>
              <code value="139"/>
              <display value="Common"/>
            </coding>
          </type>
        </name>
        <sourceMaterial>
          <type>
            <coding>
              <system value="http://hl7.org/fhir/us/pq-cmc/CodeSystem/cmc-ncit-dummy"/>
              <code value="C48807"/>
              <display value="Chemical"/>
            </coding>
          </type>
        </sourceMaterial>
      </SubstanceDefinition>
    </resource>
  </entry>
  <entry>
    <fullUrl value="urn:uuid:b81736bf-e92c-4350-a64d-1d85877b6398"/>
    <resource>
      <SubstanceDefinition>
        <id value="b81736bf-e92c-4350-a64d-1d85877b6398"/>
        <meta>
          <profile value="http://hl7.org/fhir/us/pq-cmc/StructureDefinition/pqcmc-component-substance"/>
        </meta>
        <identifier>
          <value value="lactoseMonohydrate"/>
        </identifier>
        <classification>
          <coding>
            <system value="https://www.ema.europa.eu"/>
            <code value="1"/>
            <display value="Chemical"/>
          </coding>
        </classification>
        <grade>
          <coding>
            <system value="http://hl7.org/fhir/us/pq-cmc/CodeSystem/cmc-ncit-dummy"/>
            <code value="C134009"/>
            <display value="Company Standard"/>
          </coding>
        </grade>
        <manufacturer>
          <reference value="urn:uuid:e44076c9-1c64-488b-8e77-922e3fe3804f"/>
        </manufacturer>
        <supplier>
          <reference value="urn:uuid:12d30109-5090-4abd-aa52-4aa1de721d94"/>
        </supplier>
        <code>
          <code>
            <coding>
              <system value="https://gsrs.ncats.nih.gov"/>
              <code value="EWQ57Q8I5X"/>
            </coding>
          </code>
        </code>
        <name>
          <name value="LACTOSE MONOHYDRATE"/>
          <type>
            <coding>
              <system value="http://hl7.org/fhir/us/pq-cmc/CodeSystem/cmc-ncit-dummy"/>
              <code value="141"/>
              <display value="GSRS Preferred"/>
            </coding>
          </type>
          <preferred value="true"/>
        </name>
        <name>
          <name value="Lactose Hydrate"/>
          <type>
            <coding>
              <system value="http://hl7.org/fhir/us/pq-cmc/CodeSystem/cmc-ncit-dummy"/>
              <code value="139"/>
              <display value="Common"/>
            </coding>
          </type>
        </name>
        <sourceMaterial>
          <type>
            <coding>
              <system value="http://hl7.org/fhir/us/pq-cmc/CodeSystem/cmc-ncit-dummy"/>
              <code value="C48807"/>
              <display value="Chemical"/>
            </coding>
          </type>
        </sourceMaterial>
      </SubstanceDefinition>
    </resource>
  </entry>
  <entry>
    <fullUrl value="urn:uuid:026de5fb-2015-436b-9ac1-472c06c182fc"/>
    <resource>
      <SubstanceDefinition>
        <id value="026de5fb-2015-436b-9ac1-472c06c182fc"/>
        <meta>
          <profile value="http://hl7.org/fhir/us/pq-cmc/StructureDefinition/pqcmc-component-substance"/>
        </meta>
        <identifier>
          <value value="titanium dioxide"/>
        </identifier>
        <classification>
          <coding>
            <system value="https://www.ema.europa.eu"/>
            <code value="1"/>
            <display value="Chemical"/>
          </coding>
        </classification>
        <grade>
          <coding>
            <system value="http://hl7.org/fhir/us/pq-cmc/CodeSystem/cmc-ncit-dummy"/>
            <code value="C134009"/>
            <display value="Company Standard"/>
          </coding>
        </grade>
        <manufacturer>
          <reference value="urn:uuid:8a3eec61-2111-4886-b4e0-e46b6003e6f6"/>
        </manufacturer>
        <supplier>
          <reference value="urn:uuid:12d30109-5090-4abd-aa52-4aa1de721d94"/>
        </supplier>
        <code>
          <code>
            <coding>
              <system value="https://gsrs.ncats.nih.gov"/>
              <code value="15FIX9V2JP"/>
            </coding>
          </code>
        </code>
        <name>
          <name value="TITANIUM DIOXIDE"/>
          <type>
            <coding>
              <system value="http://hl7.org/fhir/us/pq-cmc/CodeSystem/cmc-ncit-dummy"/>
              <code value="141"/>
              <display value="GSRS Preferred"/>
            </coding>
          </type>
          <preferred value="true"/>
        </name>
        <sourceMaterial>
          <type>
            <coding>
              <system value="http://hl7.org/fhir/us/pq-cmc/CodeSystem/cmc-ncit-dummy"/>
              <code value="C48807"/>
              <display value="Chemical"/>
            </coding>
          </type>
        </sourceMaterial>
      </SubstanceDefinition>
    </resource>
  </entry>
  <entry>
    <fullUrl value="urn:uuid:9328a76a-716b-4980-a8a7-d4caec4ce608"/>
    <resource>
      <SubstanceDefinition>
        <id value="9328a76a-716b-4980-a8a7-d4caec4ce608"/>
        <meta>
          <profile value="http://hl7.org/fhir/us/pq-cmc/StructureDefinition/pqcmc-component-substance"/>
        </meta>
        <identifier>
          <value value="hydroxypropylcellulose"/>
        </identifier>
        <classification>
          <coding>
            <system value="https://www.ema.europa.eu"/>
            <code value="3"/>
            <display value="Polymer"/>
          </coding>
        </classification>
        <grade>
          <coding>
            <system value="http://hl7.org/fhir/us/pq-cmc/CodeSystem/cmc-ncit-dummy"/>
            <code value="C134009"/>
            <display value="Company Standard"/>
          </coding>
        </grade>
        <manufacturer>
          <reference value="urn:uuid:e44076c9-1c64-488b-8e77-922e3fe3804f"/>
        </manufacturer>
        <supplier>
          <reference value="urn:uuid:12d30109-5090-4abd-aa52-4aa1de721d94"/>
        </supplier>
        <code>
          <code>
            <coding>
              <system value="https://gsrs.ncats.nih.gov"/>
              <code value="RFW2ET671P"/>
            </coding>
          </code>
        </code>
        <name>
          <name value="HYDROXYPROPYL CELLULOSE (160000 WAMW)"/>
          <type>
            <coding>
              <system value="http://hl7.org/fhir/us/pq-cmc/CodeSystem/cmc-ncit-dummy"/>
              <code value="141"/>
              <display value="GSRS Preferred"/>
            </coding>
          </type>
          <preferred value="true"/>
        </name>
        <sourceMaterial>
          <type>
            <coding>
              <system value="http://hl7.org/fhir/us/pq-cmc/CodeSystem/cmc-ncit-dummy"/>
              <code value="C48807"/>
              <display value="Chemical"/>
            </coding>
          </type>
        </sourceMaterial>
      </SubstanceDefinition>
    </resource>
  </entry>
  <entry>
    <fullUrl value="urn:uuid:6f6e314b-aefa-4def-b969-a3987f5d9828"/>
    <resource>
      <SubstanceDefinition>
        <id value="6f6e314b-aefa-4def-b969-a3987f5d9828"/>
        <meta>
          <profile value="http://hl7.org/fhir/us/pq-cmc/StructureDefinition/pqcmc-component-substance"/>
        </meta>
        <identifier>
          <value value="triacetin"/>
        </identifier>
        <classification>
          <coding>
            <system value="https://www.ema.europa.eu"/>
            <code value="1"/>
            <display value="Chemical"/>
          </coding>
        </classification>
        <grade>
          <coding>
            <system value="http://hl7.org/fhir/us/pq-cmc/CodeSystem/cmc-ncit-dummy"/>
            <code value="C134009"/>
            <display value="Company Standard"/>
          </coding>
        </grade>
        <manufacturer>
          <reference value="urn:uuid:e44076c9-1c64-488b-8e77-922e3fe3804f"/>
        </manufacturer>
        <supplier>
          <reference value="urn:uuid:12d30109-5090-4abd-aa52-4aa1de721d94"/>
        </supplier>
        <code>
          <code>
            <coding>
              <system value="https://gsrs.ncats.nih.gov"/>
              <code value="XHX3C3X673"/>
            </coding>
          </code>
        </code>
        <name>
          <name value="TRIACETIN"/>
          <type>
            <coding>
              <system value="http://hl7.org/fhir/us/pq-cmc/CodeSystem/cmc-ncit-dummy"/>
              <code value="141"/>
              <display value="GSRS Preferred"/>
            </coding>
          </type>
          <preferred value="true"/>
        </name>
        <sourceMaterial>
          <type>
            <coding>
              <system value="http://hl7.org/fhir/us/pq-cmc/CodeSystem/cmc-ncit-dummy"/>
              <code value="C48807"/>
              <display value="Chemical"/>
            </coding>
          </type>
        </sourceMaterial>
      </SubstanceDefinition>
    </resource>
  </entry>
  <entry>
    <fullUrl value="urn:uuid:766ab30b-a788-4342-86ab-732da566316f"/>
    <resource>
      <SubstanceDefinition>
        <id value="766ab30b-a788-4342-86ab-732da566316f"/>
        <meta>
          <profile value="http://hl7.org/fhir/us/pq-cmc/StructureDefinition/pqcmc-component-substance"/>
        </meta>
        <identifier>
          <value value="CastorOilDemo"/>
        </identifier>
        <classification>
          <coding>
            <system value="https://www.ema.europa.eu"/>
            <code value="9"/>
            <display value="Structurally Diverse Substance - Herbal"/>
          </coding>
        </classification>
        <grade>
          <coding>
            <system value="http://hl7.org/fhir/us/pq-cmc/CodeSystem/cmc-ncit-dummy"/>
            <code value="C134009"/>
            <display value="Company Standard"/>
          </coding>
        </grade>
        <manufacturer>
          <reference value="urn:uuid:e44076c9-1c64-488b-8e77-922e3fe3804f"/>
        </manufacturer>
        <supplier>
          <reference value="urn:uuid:12d30109-5090-4abd-aa52-4aa1de721d94"/>
        </supplier>
        <code>
          <code>
            <coding>
              <system value="https://gsrs.ncats.nih.gov"/>
              <code value="D5340Y2I9G"/>
            </coding>
          </code>
        </code>
        <name>
          <name value="CASTOR OIL"/>
          <type>
            <coding>
              <system value="http://hl7.org/fhir/us/pq-cmc/CodeSystem/cmc-ncit-dummy"/>
              <code value="141"/>
              <display value="GSRS Preferred"/>
            </coding>
          </type>
          <preferred value="true"/>
        </name>
        <sourceMaterial>
          <type>
            <coding>
              <system value="http://hl7.org/fhir/us/pq-cmc/CodeSystem/cmc-ncit-dummy"/>
              <code value="C14258"/>
              <display value="Plant"/>
            </coding>
          </type>
          <genus>
            <text value="Ricinus"/>
          </genus>
          <species>
            <text value="communis"/>
          </species>
          <part>
            <text value="seed"/>
          </part>
          <countryOfOrigin>
            <coding>
              <system value="urn:iso:std:iso:3166"/>
              <code value="USA"/>
              <display value="United States of America"/>
            </coding>
          </countryOfOrigin>
        </sourceMaterial>
      </SubstanceDefinition>
    </resource>
  </entry>
  <entry>
    <fullUrl value="urn:uuid:af5f9fbe-099c-44b0-bfff-1e390c0a3036"/>
    <resource>
      <SubstanceDefinition>
        <id value="af5f9fbe-099c-44b0-bfff-1e390c0a3036"/>
        <meta>
          <profile value="http://hl7.org/fhir/us/pq-cmc/StructureDefinition/pqcmc-component-substance"/>
        </meta>
        <identifier>
          <value value="povidone"/>
        </identifier>
        <classification>
          <coding>
            <system value="https://www.ema.europa.eu"/>
            <code value="1"/>
            <display value="Chemical"/>
          </coding>
        </classification>
        <grade>
          <coding>
            <system value="http://hl7.org/fhir/us/pq-cmc/CodeSystem/cmc-ncit-dummy"/>
            <code value="C134009"/>
            <display value="Company Standard"/>
          </coding>
        </grade>
        <manufacturer>
          <reference value="urn:uuid:e44076c9-1c64-488b-8e77-922e3fe3804f"/>
        </manufacturer>
        <supplier>
          <reference value="urn:uuid:12d30109-5090-4abd-aa52-4aa1de721d94"/>
        </supplier>
        <code>
          <code>
            <coding>
              <system value="https://gsrs.ncats.nih.gov"/>
              <code value="FZ989GH94E"/>
            </coding>
          </code>
        </code>
        <name>
          <name value="POVIDONE"/>
          <type>
            <coding>
              <system value="http://hl7.org/fhir/us/pq-cmc/CodeSystem/cmc-ncit-dummy"/>
              <code value="141"/>
              <display value="GSRS Preferred"/>
            </coding>
          </type>
          <preferred value="true"/>
        </name>
        <sourceMaterial>
          <type>
            <coding>
              <system value="http://hl7.org/fhir/us/pq-cmc/CodeSystem/cmc-ncit-dummy"/>
              <code value="C48807"/>
              <display value="Chemical"/>
            </coding>
          </type>
        </sourceMaterial>
      </SubstanceDefinition>
    </resource>
  </entry>
  <entry>
    <fullUrl value="urn:uuid:c31a84e7-1a43-453f-b49d-1664e258982f"/>
    <resource>
      <SubstanceDefinition>
        <id value="c31a84e7-1a43-453f-b49d-1664e258982f"/>
        <meta>
          <profile value="http://hl7.org/fhir/us/pq-cmc/StructureDefinition/pqcmc-component-substance"/>
        </meta>
        <identifier>
          <value value="propyleneGlycol"/>
        </identifier>
        <classification>
          <coding>
            <system value="https://www.ema.europa.eu"/>
            <code value="1"/>
            <display value="Chemical"/>
          </coding>
        </classification>
        <grade>
          <coding>
            <system value="http://hl7.org/fhir/us/pq-cmc/CodeSystem/cmc-ncit-dummy"/>
            <code value="C134009"/>
            <display value="Company Standard"/>
          </coding>
        </grade>
        <manufacturer>
          <reference value="urn:uuid:e44076c9-1c64-488b-8e77-922e3fe3804f"/>
        </manufacturer>
        <supplier>
          <reference value="urn:uuid:12d30109-5090-4abd-aa52-4aa1de721d94"/>
        </supplier>
        <code>
          <code>
            <coding>
              <system value="https://gsrs.ncats.nih.gov"/>
              <code value="6DC9Q167V3"/>
            </coding>
          </code>
        </code>
        <name>
          <name value="PROPYLENE GLYCOL"/>
          <type>
            <coding>
              <system value="http://hl7.org/fhir/us/pq-cmc/CodeSystem/cmc-ncit-dummy"/>
              <code value="141"/>
              <display value="GSRS Preferred"/>
            </coding>
          </type>
          <preferred value="true"/>
        </name>
        <name>
          <name value="E-1520"/>
          <type>
            <coding>
              <system value="http://hl7.org/fhir/us/pq-cmc/CodeSystem/cmc-ncit-dummy"/>
              <code value="139"/>
              <display value="Common"/>
            </coding>
          </type>
        </name>
        <sourceMaterial>
          <type>
            <coding>
              <system value="http://hl7.org/fhir/us/pq-cmc/CodeSystem/cmc-ncit-dummy"/>
              <code value="C48807"/>
              <display value="Chemical"/>
            </coding>
          </type>
        </sourceMaterial>
      </SubstanceDefinition>
    </resource>
  </entry>
  <entry>
    <fullUrl value="urn:uuid:57fbea09-a89b-47b8-a860-ec87e866825b"/>
    <resource>
      <SubstanceDefinition>
        <id value="57fbea09-a89b-47b8-a860-ec87e866825b"/>
        <meta>
          <profile value="http://hl7.org/fhir/us/pq-cmc/StructureDefinition/pqcmc-component-substance"/>
        </meta>
        <identifier>
          <value value="Blue No. 1"/>
        </identifier>
        <classification>
          <coding>
            <system value="https://www.ema.europa.eu"/>
            <code value="17"/>
            <display value="Mixture"/>
          </coding>
        </classification>
        <grade>
          <coding>
            <system value="http://hl7.org/fhir/us/pq-cmc/CodeSystem/cmc-ncit-dummy"/>
            <code value="C134009"/>
            <display value="Company Standard"/>
          </coding>
        </grade>
        <manufacturer>
          <reference value="urn:uuid:e44076c9-1c64-488b-8e77-922e3fe3804f"/>
        </manufacturer>
        <supplier>
          <reference value="urn:uuid:12d30109-5090-4abd-aa52-4aa1de721d94"/>
        </supplier>
        <code>
          <code>
            <coding>
              <system value="https://gsrs.ncats.nih.gov"/>
              <code value="H3R47K3TBD"/>
            </coding>
          </code>
        </code>
        <name>
          <name value="FD&amp;C BLUE NO. 1"/>
          <type>
            <coding>
              <system value="http://hl7.org/fhir/us/pq-cmc/CodeSystem/cmc-ncit-dummy"/>
              <code value="141"/>
              <display value="GSRS Preferred"/>
            </coding>
          </type>
          <preferred value="true"/>
        </name>
        <sourceMaterial>
          <type>
            <coding>
              <system value="http://hl7.org/fhir/us/pq-cmc/CodeSystem/cmc-ncit-dummy"/>
              <code value="C48807"/>
              <display value="Chemical"/>
            </coding>
          </type>
        </sourceMaterial>
      </SubstanceDefinition>
    </resource>
  </entry>
  <entry>
    <fullUrl value="urn:uuid:61b8f148-4299-4fcf-9e5d-4a62120d5fc2"/>
    <resource>
      <SubstanceDefinition>
        <id value="61b8f148-4299-4fcf-9e5d-4a62120d5fc2"/>
        <meta>
          <profile value="http://hl7.org/fhir/us/pq-cmc/StructureDefinition/pqcmc-component-substance"/>
        </meta>
        <identifier>
          <value value="benzoicAcid"/>
        </identifier>
        <classification>
          <coding>
            <system value="https://www.ema.europa.eu"/>
            <code value="1"/>
            <display value="Chemical"/>
          </coding>
        </classification>
        <grade>
          <coding>
            <system value="http://hl7.org/fhir/us/pq-cmc/CodeSystem/cmc-ncit-dummy"/>
            <code value="C134007"/>
            <display value="EP"/>
          </coding>
        </grade>
        <manufacturer>
          <reference value="urn:uuid:e44076c9-1c64-488b-8e77-922e3fe3804f"/>
        </manufacturer>
        <supplier>
          <reference value="urn:uuid:12d30109-5090-4abd-aa52-4aa1de721d94"/>
        </supplier>
        <code>
          <code>
            <coding>
              <system value="https://gsrs.ncats.nih.gov"/>
              <code value="8SKN0B0MIM"/>
            </coding>
          </code>
        </code>
        <name>
          <name value="BENZOIC ACID"/>
          <type>
            <coding>
              <system value="http://hl7.org/fhir/us/pq-cmc/CodeSystem/cmc-ncit-dummy"/>
              <code value="141"/>
              <display value="GSRS Preferred"/>
            </coding>
          </type>
          <preferred value="true"/>
        </name>
        <sourceMaterial>
          <type>
            <coding>
              <system value="http://hl7.org/fhir/us/pq-cmc/CodeSystem/cmc-ncit-dummy"/>
              <code value="C48807"/>
              <display value="Chemical"/>
            </coding>
          </type>
        </sourceMaterial>
      </SubstanceDefinition>
    </resource>
  </entry>
  <entry>
    <fullUrl value="urn:uuid:366c9308-ff57-415f-940b-4696ca6e1e32"/>
    <resource>
      <SubstanceDefinition>
        <id value="366c9308-ff57-415f-940b-4696ca6e1e32"/>
        <meta>
          <profile value="http://hl7.org/fhir/us/pq-cmc/StructureDefinition/pqcmc-component-substance"/>
        </meta>
        <identifier>
          <value value="Stearic acid"/>
        </identifier>
        <classification>
          <coding>
            <system value="https://www.ema.europa.eu"/>
            <code value="1"/>
            <display value="Chemical"/>
          </coding>
        </classification>
        <grade>
          <coding>
            <system value="http://hl7.org/fhir/us/pq-cmc/CodeSystem/cmc-ncit-dummy"/>
            <code value="C134009"/>
            <display value="Company Standard"/>
          </coding>
        </grade>
        <manufacturer>
          <reference value="urn:uuid:e44076c9-1c64-488b-8e77-922e3fe3804f"/>
        </manufacturer>
        <supplier>
          <reference value="urn:uuid:12d30109-5090-4abd-aa52-4aa1de721d94"/>
        </supplier>
        <code>
          <code>
            <coding>
              <system value="https://gsrs.ncats.nih.gov"/>
              <code value="4ELV7Z65AP"/>
            </coding>
          </code>
        </code>
        <name>
          <name value="STEARIC ACID"/>
          <type>
            <coding>
              <system value="http://hl7.org/fhir/us/pq-cmc/CodeSystem/cmc-ncit-dummy"/>
              <code value="141"/>
              <display value="GSRS Preferred"/>
            </coding>
          </type>
          <preferred value="true"/>
        </name>
        <sourceMaterial>
          <type>
            <coding>
              <system value="http://hl7.org/fhir/us/pq-cmc/CodeSystem/cmc-ncit-dummy"/>
              <code value="C48807"/>
              <display value="Chemical"/>
            </coding>
          </type>
        </sourceMaterial>
      </SubstanceDefinition>
    </resource>
  </entry>
  <entry>
    <fullUrl value="urn:uuid:0e659ae1-22a9-47be-be47-dec835b567ee"/>
    <resource>
      <Organization>
        <id value="0e659ae1-22a9-47be-be47-dec835b567ee"/>
        <meta>
          <profile value="http://hl7.org/fhir/us/pq-cmc/StructureDefinition/cmc-sponsor-organization"/>
        </meta>
        <identifier>
          <type>
            <coding>
              <system value="http://hl7.org/fhir/us/pq-cmc/CodeSystem/cmc-ncit-dummy"/>
              <code value="C134003"/>
              <display value="DUNS"/>
            </coding>
          </type>
          <system value="urn:oid:1.3.6.1.4.1.519.1"/>
          <value value="143265222"/>
        </identifier>
        <name value="test site A"/>
        <contact>
          <address>
            <text value="test site A, 123 Broad Way, new york, ny, United States"/>
            <line value="123 Broad Way"/>
            <city value="new york"/>
            <state value="ny"/>
            <postalCode value="100000"/>
            <country value="United States"/>
          </address>
        </contact>
      </Organization>
    </resource>
  </entry>
  <entry>
    <fullUrl value="urn:uuid:e44076c9-1c64-488b-8e77-922e3fe3804f"/>
    <resource>
      <Organization>
        <id value="e44076c9-1c64-488b-8e77-922e3fe3804f"/>
        <meta>
          <profile value="http://hl7.org/fhir/us/pq-cmc/StructureDefinition/mfg-test-site-organization"/>
        </meta>
        <identifier>
          <type>
            <coding>
              <system value="http://hl7.org/fhir/us/pq-cmc/CodeSystem/cmc-ncit-dummy"/>
              <code value="C134003"/>
              <display value="DUNS"/>
            </coding>
          </type>
          <system value="urn:oid:1.3.6.1.4.1.519.1"/>
          <value value="143265222"/>
        </identifier>
        <identifier>
          <type>
            <coding>
              <system value="http://hl7.org/fhir/us/pq-cmc/CodeSystem/cmc-ncit-dummy"/>
              <code value="C134004"/>
              <display value="FEI"/>
            </coding>
          </type>
          <system value="urn:oid:2.16.840.1.113883.4.82"/>
          <value value="6981397"/>
        </identifier>
        <name value="test site A"/>
        <contact>
          <address>
            <text value="test site A, 123 Broad Way, new york, ny, United States"/>
            <line value="123 Broad Way"/>
            <city value="new york"/>
            <state value="ny"/>
            <postalCode value="100000"/>
            <country value="United States"/>
          </address>
        </contact>
      </Organization>
    </resource>
  </entry>
  <entry>
    <fullUrl value="urn:uuid:12d30109-5090-4abd-aa52-4aa1de721d94"/>
    <resource>
      <Organization>
        <id value="12d30109-5090-4abd-aa52-4aa1de721d94"/>
        <meta>
          <profile value="http://hl7.org/fhir/us/pq-cmc/StructureDefinition/mfg-test-site-organization"/>
        </meta>
        <identifier>
          <type>
            <coding>
              <system value="http://hl7.org/fhir/us/pq-cmc/CodeSystem/cmc-ncit-dummy"/>
              <code value="C134003"/>
              <display value="DUNS"/>
            </coding>
          </type>
          <system value="urn:oid:1.3.6.1.4.1.519.1"/>
          <value value="143265222"/>
        </identifier>
        <identifier>
          <type>
            <coding>
              <system value="http://hl7.org/fhir/us/pq-cmc/CodeSystem/cmc-ncit-dummy"/>
              <code value="C134004"/>
              <display value="FEI"/>
            </coding>
          </type>
          <system value="urn:oid:2.16.840.1.113883.4.82"/>
          <value value="6981397"/>
        </identifier>
        <name value="test site B"/>
        <contact>
          <address>
            <text value="test site B, 350 W Main Street, Rochester, NY, United States"/>
            <line value="350 W Main Street"/>
            <city value="Rochester"/>
            <state value="NY"/>
            <postalCode value="14608"/>
            <country value="United States"/>
          </address>
        </contact>
      </Organization>
    </resource>
  </entry>
  <entry>
    <fullUrl value="urn:uuid:8a3eec61-2111-4886-b4e0-e46b6003e6f6"/>
    <resource>
      <Organization>
        <id value="8a3eec61-2111-4886-b4e0-e46b6003e6f6"/>
        <meta>
          <profile value="http://hl7.org/fhir/us/pq-cmc/StructureDefinition/mfg-test-site-organization"/>
        </meta>
        <identifier>
          <type>
            <coding>
              <system value="http://hl7.org/fhir/us/pq-cmc/CodeSystem/cmc-ncit-dummy"/>
              <code value="C134003"/>
              <display value="DUNS"/>
            </coding>
          </type>
          <system value="urn:oid:1.3.6.1.4.1.519.1"/>
          <value value="143265222"/>
        </identifier>
        <identifier>
          <type>
            <coding>
              <system value="http://hl7.org/fhir/us/pq-cmc/CodeSystem/cmc-ncit-dummy"/>
              <code value="C134004"/>
              <display value="FEI"/>
            </coding>
          </type>
          <system value="urn:oid:2.16.840.1.113883.4.82"/>
          <value value="6981397"/>
        </identifier>
        <name value="test site C"/>
        <contact>
          <address>
            <text value="test site C, 100 Stillwater Avenue, Building #2, bangor, me, United States"/>
            <line value="100 Stillwater Avenue"/>
            <line value="Building #2"/>
            <city value="bangor"/>
            <state value="me"/>
            <postalCode value="04401"/>
            <country value="United States"/>
          </address>
        </contact>
      </Organization>
    </resource>
  </entry>
</Bundle>
